subject_id,trial_congruent_fac,resp_corr,resp_rt,resp_value,log_rt,mean_log_rt,sd_log_rt,exclude_trial,exclude_part
3961,congruent,1,0.5534899,right,-0.591511774515742,-0.48080318269313255,0.17895269781956838,0,0
3961,incongruent,1,0.7098791,right,-0.3426606051364898,-0.3833956357361437,0.14304557398861886,0,0
3961,incongruent,1,0.651793,left,-0.428028252126986,-0.3833956357361437,0.14304557398861886,0,0
3961,incongruent,1,0.6358485,right,-0.45279495156510874,-0.3833956357361437,0.14304557398861886,0,0
3961,congruent,1,0.607012,left,-0.4992067187605541,-0.48080318269313255,0.17895269781956838,0,0
3961,incongruent,1,0.6778457,left,-0.38883559806319845,-0.3833956357361437,0.14304557398861886,0,0
3961,congruent,1,0.7019809,left,-0.3538490833036776,-0.48080318269313255,0.17895269781956838,0,0
3961,congruent,1,0.6769323,right,-0.39018401107019535,-0.48080318269313255,0.17895269781956838,0,0
3961,incongruent,1,0.6019016,right,-0.5076613021830665,-0.3833956357361437,0.14304557398861886,0,0
3961,congruent,1,0.6129385,left,-0.4894906743432159,-0.48080318269313255,0.17895269781956838,0,0
3961,congruent,1,0.636867,right,-0.4511944364186839,-0.48080318269313255,0.17895269781956838,0,0
3961,incongruent,1,0.6798791,right,-0.3858402907368796,-0.3833956357361437,0.14304557398861886,0,0
3961,congruent,1,0.6238188,left,-0.47189533739787026,-0.48080318269313255,0.17895269781956838,0,0
3961,incongruent,1,0.6759206,left,-0.3916796654589264,-0.3833956357361437,0.14304557398861886,0,0
3961,congruent,1,0.5629811,right,-0.574509221565795,-0.48080318269313255,0.17895269781956838,0,0
3961,incongruent,1,0.6559522,left,-0.42166735854655185,-0.3833956357361437,0.14304557398861886,0,0
3961,congruent,1,0.4977335,right,-0.697690485758548,-0.48080318269313255,0.17895269781956838,0,0
3961,congruent,1,0.5520195,left,-0.5941719072420367,-0.48080318269313255,0.17895269781956838,0,0
3961,incongruent,1,0.6648789,left,-0.40815036017261747,-0.3833956357361437,0.14304557398861886,0,0
3961,congruent,1,0.6039749,left,-0.5042226382021995,-0.48080318269313255,0.17895269781956838,0,0
3961,congruent,1,0.556904,right,-0.5853624057942448,-0.48080318269313255,0.17895269781956838,0,0
3961,incongruent,1,0.7379962,right,-0.3038166034464115,-0.3833956357361437,0.14304557398861886,0,0
3961,incongruent,1,0.7178936,left,-0.33143391033009084,-0.3833956357361437,0.14304557398861886,0,0
3961,incongruent,1,0.5889243,right,-0.5294576265105324,-0.3833956357361437,0.14304557398861886,0,0
3961,congruent,1,0.5739322,right,-0.555244008106005,-0.48080318269313255,0.17895269781956838,0,0
3961,congruent,1,0.6609955,left,-0.4140082470204928,-0.48080318269313255,0.17895269781956838,0,0
3961,incongruent,1,0.7118858,left,-0.3398377736929625,-0.3833956357361437,0.14304557398861886,0,0
3961,congruent,1,0.5210235,right,-0.6519601326797768,-0.48080318269313255,0.17895269781956838,0,0
3961,incongruent,1,0.7268435,right,-0.31904409284773255,-0.3833956357361437,0.14304557398861886,0,0
3961,incongruent,1,0.7019734,left,-0.35385976741212777,-0.3833956357361437,0.14304557398861886,0,0
3961,incongruent,1,0.5559168,right,-0.5871366362165494,-0.3833956357361437,0.14304557398861886,0,0
3961,congruent,1,0.7548745,left,-0.28120376871560926,-0.48080318269313255,0.17895269781956838,0,0
3961,incongruent,1,1.0600209,right,0.05828862491073077,-0.3833956357361437,0.14304557398861886,0,0
3961,congruent,1,0.6069138,left,-0.49936850789167603,-0.48080318269313255,0.17895269781956838,0,0
3961,congruent,1,0.4478614,right,-0.8032714694334698,-0.48080318269313255,0.17895269781956838,0,0
3961,congruent,1,0.5889049,right,-0.5294905684685035,-0.48080318269313255,0.17895269781956838,0,0
3961,incongruent,1,0.7599124,left,-0.27455211550296327,-0.3833956357361437,0.14304557398861886,0,0
3961,incongruent,1,0.6879687,right,-0.3740119362697318,-0.3833956357361437,0.14304557398861886,0,0
3961,incongruent,1,0.8979378,left,-0.10765447811227821,-0.3833956357361437,0.14304557398861886,0,0
3961,congruent,1,0.7649962,left,-0.26788441248819983,-0.48080318269313255,0.17895269781956838,0,0
3961,congruent,1,0.7738641,right,-0.25635900220397645,-0.48080318269313255,0.17895269781956838,0,0
3961,incongruent,1,0.610044,left,-0.4942241932685652,-0.3833956357361437,0.14304557398861886,0,0
3961,incongruent,1,0.5908299,right,-0.5262271202622585,-0.3833956357361437,0.14304557398861886,0,0
3961,incongruent,1,0.6810055,right,-0.3841848965069416,-0.3833956357361437,0.14304557398861886,0,0
3961,incongruent,1,0.5449701,left,-0.6070243482092098,-0.3833956357361437,0.14304557398861886,0,0
3961,congruent,1,0.4739157,right,-0.7467258212051753,-0.48080318269313255,0.17895269781956838,0,0
3961,congruent,1,1.0179741,left,0.01781447576145472,-0.48080318269313255,0.17895269781956838,0,0
3961,congruent,0,0.7058968,right,-0.3482862278109885,-0.48080318269313255,0.17895269781956838,0,0
3962,congruent,1,0.5369365,left,-0.6218754409997503,-0.6759281372784443,0.1329144815027003,0,0
3962,congruent,1,0.533998,right,-0.6273631853473081,-0.6759281372784443,0.1329144815027003,0,0
3962,incongruent,1,0.7590751,left,-0.2756545604997832,-0.47214403756909523,0.1920554831364451,0,0
3962,congruent,1,0.4316024,right,-0.8402504849092622,-0.6759281372784443,0.1329144815027003,0,0
3962,incongruent,1,0.6159334,left,-0.48461643817678574,-0.47214403756909523,0.1920554831364451,0,0
3962,incongruent,1,0.5840353,right,-0.5377938527751683,-0.47214403756909523,0.1920554831364451,0,0
3962,congruent,1,0.5467575,left,-0.603749902098218,-0.6759281372784443,0.1329144815027003,0,0
3962,incongruent,1,0.6110259,right,-0.492615931183584,-0.47214403756909523,0.1920554831364451,0,0
3962,incongruent,0,0.4477693,left,-0.8034771345593408,-0.47214403756909523,0.1920554831364451,0,0
3962,congruent,1,0.5089057,right,-0.6754925448212694,-0.6759281372784443,0.1329144815027003,0,0
3962,congruent,1,0.5389007,left,-0.6182239551012398,-0.6759281372784443,0.1329144815027003,0,0
3962,congruent,1,0.5518895,right,-0.5944074339033846,-0.6759281372784443,0.1329144815027003,0,0
3962,incongruent,1,0.5728882,left,-0.557064694742546,-0.47214403756909523,0.1920554831364451,0,0
3962,incongruent,1,0.5569655,right,-0.5852519799318568,-0.47214403756909523,0.1920554831364451,0,0
3962,congruent,1,0.414908,left,-0.8796984700745658,-0.6759281372784443,0.1329144815027003,0,0
3962,incongruent,1,0.6819411,left,-0.3828119885045922,-0.47214403756909523,0.1920554831364451,0,0
3962,incongruent,1,0.625,left,-0.4700036292457356,-0.47214403756909523,0.1920554831364451,0,0
3962,incongruent,1,0.6288792,left,-0.4638160916002311,-0.47214403756909523,0.1920554831364451,0,0
3962,congruent,1,0.4898955,right,-0.7135631759278664,-0.6759281372784443,0.1329144815027003,0,0
3962,congruent,1,0.6280229,right,-0.4651786482106162,-0.6759281372784443,0.1329144815027003,0,0
3962,incongruent,1,0.6688596,right,-0.4021811063496001,-0.47214403756909523,0.1920554831364451,0,0
3962,incongruent,1,0.6740144,right,-0.39450380331289486,-0.47214403756909523,0.1920554831364451,0,0
3962,congruent,1,0.4788495,left,-0.7363689271833739,-0.6759281372784443,0.1329144815027003,0,0
3962,congruent,1,0.4958972,left,-0.7013866318026465,-0.6759281372784443,0.1329144815027003,0,0
3962,congruent,1,0.3620498,right,-1.0159735075573482,-0.6759281372784443,0.1329144815027003,0,0
3962,incongruent,1,0.641033,right,-0.4446743413273404,-0.47214403756909523,0.1920554831364451,0,0
3962,congruent,1,0.4500224,left,-0.7984579196788664,-0.6759281372784443,0.1329144815027003,0,0
3962,congruent,1,0.5390093,left,-0.6180224540475944,-0.6759281372784443,0.1329144815027003,0,0
3962,congruent,1,0.520853,right,-0.652287426752581,-0.6759281372784443,0.1329144815027003,0,0
3962,incongruent,1,0.6559854,right,-0.4216167463832795,-0.47214403756909523,0.1920554831364451,0,0
3962,incongruent,0,0.3838974,right,-0.9573799495953497,-0.47214403756909523,0.1920554831364451,0,0
3962,incongruent,1,0.5999664,left,-0.5108816253340492,-0.47214403756909523,0.1920554831364451,0,0
3962,congruent,1,0.5398737,right,-0.6164200556689776,-0.6759281372784443,0.1329144815027003,0,0
3962,incongruent,1,0.6550161,right,-0.4230954634963004,-0.47214403756909523,0.1920554831364451,0,0
3962,incongruent,1,0.6089513,left,-0.4960169816290613,-0.47214403756909523,0.1920554831364451,0,0
3962,incongruent,1,0.5857611,right,-0.5348432517097617,-0.47214403756909523,0.1920554831364451,0,0
3962,congruent,1,0.5640473,right,-0.5726171657523444,-0.6759281372784443,0.1329144815027003,0,0
3962,incongruent,1,0.5398883,left,-0.6163930126724638,-0.47214403756909523,0.1920554831364451,0,0
3962,congruent,1,0.4849496,left,-0.7237103109702273,-0.6759281372784443,0.1329144815027003,0,0
3962,congruent,1,0.5428249,left,-0.6109684788237525,-0.6759281372784443,0.1329144815027003,0,0
3962,incongruent,1,0.5469091,left,-0.6034726695284914,-0.47214403756909523,0.1920554831364451,0,0
3962,congruent,1,0.6867908,left,-0.37572554550572923,-0.6759281372784443,0.1329144815027003,0,0
3962,congruent,1,0.4919888,right,-0.7092993269765802,-0.6759281372784443,0.1329144815027003,0,0
3962,incongruent,1,1.0669128,right,0.06476924451888479,-0.47214403756909523,0.1920554831364451,0,0
3962,congruent,1,0.4429179,right,-0.8143708534259999,-0.6759281372784443,0.1329144815027003,0,0
3962,congruent,1,0.5289489,left,-0.6368634491431595,-0.6759281372784443,0.1329144815027003,0,0
3962,incongruent,1,0.7694281,right,-0.2621077673656854,-0.47214403756909523,0.1920554831364451,0,0
3962,incongruent,1,0.7588485,left,-0.2759531262532681,-0.47214403756909523,0.1920554831364451,0,0
3965,incongruent,1,0.9078431,right,-0.09668371266885527,-0.19802155209969421,0.2490605625766992,0,0
3965,congruent,1,0.5798691,left,-0.5449528905685872,-0.3563782778541086,0.21731932508117754,0,0
3965,incongruent,1,0.5119193,right,-0.6695882835530236,-0.19802155209969421,0.2490605625766992,0,0
3965,incongruent,1,0.8449658,left,-0.16845912581681333,-0.19802155209969421,0.2490605625766992,0,0
3965,congruent,1,0.6768826,left,-0.3902574332197409,-0.3563782778541086,0.21731932508117754,0,0
3965,congruent,1,0.6408514,right,-0.4449576742101103,-0.3563782778541086,0.21731932508117754,0,0
3965,incongruent,1,0.5388663,left,-0.6182877907911647,-0.19802155209969421,0.2490605625766992,0,0
3965,congruent,1,0.6109091,right,-0.4928071033823601,-0.3563782778541086,0.21731932508117754,0,0
3965,congruent,1,0.725911,left,-0.32032786120373224,-0.3563782778541086,0.21731932508117754,0,0
3965,congruent,1,0.7948341,right,-0.2296218653496315,-0.3563782778541086,0.21731932508117754,0,0
3965,congruent,1,0.7249651,left,-0.3216317632171641,-0.3563782778541086,0.21731932508117754,0,0
3965,incongruent,1,0.8129272,right,-0.20711371833915895,-0.19802155209969421,0.2490605625766992,0,0
3965,incongruent,1,0.7148815,right,-0.3356384842893048,-0.19802155209969421,0.2490605625766992,0,0
3965,incongruent,1,0.5798342,left,-0.5450130783769871,-0.19802155209969421,0.2490605625766992,0,0
3965,congruent,1,0.6199034,right,-0.4781916195336988,-0.3563782778541086,0.21731932508117754,0,0
3965,incongruent,1,0.7149115,left,-0.33559652017281455,-0.19802155209969421,0.2490605625766992,0,0
3965,incongruent,1,0.9719358,left,-0.028465526085770538,-0.19802155209969421,0.2490605625766992,0,0
3965,incongruent,1,0.698918,left,-0.3582218540732257,-0.19802155209969421,0.2490605625766992,0,0
3965,congruent,1,0.6029113,right,-0.5059851909190133,-0.3563782778541086,0.21731932508117754,0,0
3965,incongruent,1,0.9200637,right,-0.08331237220553418,-0.19802155209969421,0.2490605625766992,0,0
3965,congruent,1,0.6958688,left,-0.36259414216428537,-0.3563782778541086,0.21731932508117754,0,0
3965,congruent,1,0.5687911,right,-0.5642420475916111,-0.3563782778541086,0.21731932508117754,0,0
3965,incongruent,1,0.8999701,right,-0.10539373843191878,-0.19802155209969421,0.2490605625766992,0,0
3965,congruent,1,0.5888989,left,-0.5295007569226415,-0.3563782778541086,0.21731932508117754,0,0
3965,incongruent,1,0.9519805,left,-0.04921072759383251,-0.19802155209969421,0.2490605625766992,0,0
3965,congruent,1,0.6241366,right,-0.47138602431365295,-0.3563782778541086,0.21731932508117754,0,0
3965,congruent,1,0.5028626,left,-0.6874383072314657,-0.3563782778541086,0.21731932508117754,0,0
3965,incongruent,1,0.7864444,right,-0.2402332519260886,-0.19802155209969421,0.2490605625766992,0,0
3965,congruent,1,0.5403274,right,-0.6155800268508633,-0.3563782778541086,0.21731932508117754,0,0
3965,incongruent,1,0.8130321,right,-0.2069846868189412,-0.19802155209969421,0.2490605625766992,0,0
3965,incongruent,1,0.9247881,left,-0.07819064879387173,-0.19802155209969421,0.2490605625766992,0,0
3965,congruent,1,0.7710106,left,-0.26005315713458677,-0.3563782778541086,0.21731932508117754,0,0
3965,congruent,1,0.8988014,right,-0.10669318103977733,-0.3563782778541086,0.21731932508117754,0,0
3965,incongruent,1,0.6139628,left,-0.48782093898963796,-0.19802155209969421,0.2490605625766992,0,0
3965,congruent,1,0.8708334,left,-0.13830459482215934,-0.3563782778541086,0.21731932508117754,0,0
3965,incongruent,1,0.8839671,left,-0.12333543423164071,-0.19802155209969421,0.2490605625766992,0,0
3965,incongruent,1,0.6668574,right,-0.40517904902696494,-0.19802155209969421,0.2490605625766992,0,0
3965,incongruent,1,0.8739262,right,-0.13475934625107275,-0.19802155209969421,0.2490605625766992,0,0
3965,congruent,1,0.8918609,right,-0.11444510026633532,-0.3563782778541086,0.21731932508117754,0,0
3965,congruent,1,0.7319068,left,-0.3121020955313825,-0.3563782778541086,0.21731932508117754,0,0
3965,incongruent,1,1.043929,left,0.04299147948498588,-0.19802155209969421,0.2490605625766992,0,0
3965,congruent,1,1.3589179,right,0.3066887212764274,-0.3563782778541086,0.21731932508117754,0,0
3965,incongruent,1,1.5699407,right,0.4510378479462489,-0.19802155209969421,0.2490605625766992,0,0
3965,incongruent,1,1.162928,right,0.15094096276368915,-0.19802155209969421,0.2490605625766992,0,0
3965,congruent,1,0.8521261,right,-0.16002075840959992,-0.3563782778541086,0.21731932508117754,0,0
3965,congruent,1,0.7709105,left,-0.2601829951660406,-0.3563782778541086,0.21731932508117754,0,0
3965,congruent,1,0.5778212,left,-0.5484908007265926,-0.3563782778541086,0.21731932508117754,0,0
3965,incongruent,1,0.8869211,left,-0.119999252150963,-0.19802155209969421,0.2490605625766992,0,0
3966,congruent,1,0.6335276,left,-0.45645171268773704,-0.6700184827080153,0.14423400111712142,0,0
3966,congruent,1,0.6458489,right,-0.43718970348741637,-0.6700184827080153,0.14423400111712142,0,0
3966,incongruent,1,0.6909733,right,-0.369654095613675,-0.5142608225506918,0.14721841040937295,0,0
3966,incongruent,1,0.647025,right,-0.43537034535138497,-0.5142608225506918,0.14721841040937295,0,0
3966,incongruent,1,0.6439052,left,-0.44020376868244243,-0.5142608225506918,0.14721841040937295,0,0
3966,congruent,1,0.5779625,left,-0.5482462913072195,-0.6700184827080153,0.14423400111712142,0,0
3966,incongruent,1,0.700891,left,-0.3554028961917708,-0.5142608225506918,0.14721841040937295,0,0
3966,congruent,1,0.6029548,right,-0.5059130436051136,-0.6700184827080153,0.14423400111712142,0,0
3966,incongruent,1,0.6497954,right,-0.431097734873456,-0.5142608225506918,0.14721841040937295,0,0
3966,congruent,1,0.5449341,left,-0.6070904090611876,-0.6700184827080153,0.14423400111712142,0,0
3966,congruent,1,0.5739685,right,-0.5551807622172064,-0.6700184827080153,0.14423400111712142,0,0
3966,incongruent,1,0.6630098,left,-0.41096550760838263,-0.5142608225506918,0.14721841040937295,0,0
3966,incongruent,1,0.6278695,left,-0.4654229366556501,-0.5142608225506918,0.14721841040937295,0,0
3966,congruent,1,0.5418992,left,-0.612675272698296,-0.6700184827080153,0.14423400111712142,0,0
3966,congruent,1,0.5090576,right,-0.6751941057692379,-0.6700184827080153,0.14423400111712142,0,0
3966,incongruent,1,0.6113904,right,-0.49201957131697766,-0.5142608225506918,0.14721841040937295,0,0
3966,congruent,1,0.5059618,left,-0.6812941066156385,-0.6700184827080153,0.14423400111712142,0,0
3966,congruent,1,0.4689427,right,-0.7572746928398967,-0.6700184827080153,0.14423400111712142,0,0
3966,incongruent,1,0.5759918,left,-0.5516618544986912,-0.5142608225506918,0.14721841040937295,0,0
3966,congruent,1,0.4670062,left,-0.7614127451701048,-0.6700184827080153,0.14423400111712142,0,0
3966,incongruent,1,0.5398961,right,-0.6163785653439043,-0.5142608225506918,0.14721841040937295,0,0
3966,incongruent,1,0.8368583,right,-0.17810051792624812,-0.5142608225506918,0.14721841040937295,0,0
3966,incongruent,1,0.5209278,left,-0.6521438264863281,-0.5142608225506918,0.14721841040937295,0,0
3966,congruent,1,0.4918895,right,-0.7095011812106601,-0.6700184827080153,0.14423400111712142,0,0
3966,incongruent,1,0.5109224,left,-0.6715375594099975,-0.5142608225506918,0.14721841040937295,0,0
3966,incongruent,1,0.4969253,right,-0.6993155659928226,-0.5142608225506918,0.14721841040937295,0,0
3966,congruent,1,0.4650154,right,-0.7656847556636089,-0.6700184827080153,0.14423400111712142,0,0
3966,congruent,1,0.393895,left,-0.931670902662891,-0.6700184827080153,0.14423400111712142,0,0
3966,incongruent,1,0.6520402,left,-0.4276490625144466,-0.5142608225506918,0.14721841040937295,0,0
3966,incongruent,1,0.5108883,right,-0.6716043036709701,-0.5142608225506918,0.14721841040937295,0,0
3966,congruent,1,0.6359457,left,-0.4526420966453597,-0.6700184827080153,0.14423400111712142,0,0
3966,congruent,1,0.6040678,right,-0.5040688356914386,-0.6700184827080153,0.14423400111712142,0,0
3966,incongruent,1,0.6507345,left,-0.42965355406189587,-0.5142608225506918,0.14721841040937295,0,0
3966,incongruent,1,0.5020082,right,-0.6891388247624624,-0.5142608225506918,0.14721841040937295,0,0
3966,incongruent,1,0.6119269,right,-0.4911424480483111,-0.5142608225506918,0.14721841040937295,0,0
3966,congruent,1,0.4869427,right,-0.7196088219595036,-0.6700184827080153,0.14423400111712142,0,0
3966,congruent,1,0.4550736,right,-0.787296114870882,-0.6700184827080153,0.14423400111712142,0,0
3966,congruent,1,0.4868019,left,-0.7198980148361188,-0.6700184827080153,0.14423400111712142,0,0
3966,incongruent,1,0.5539827,left,-0.5906218201592628,-0.5142608225506918,0.14721841040937295,0,0
3966,congruent,1,0.4849278,left,-0.723755265105675,-0.6700184827080153,0.14423400111712142,0,0
3966,congruent,1,0.4608757,right,-0.7746269035789684,-0.6700184827080153,0.14423400111712142,0,0
3966,congruent,1,0.4249501,left,-0.8557835287157269,-0.6700184827080153,0.14423400111712142,0,0
3966,congruent,1,0.3899129,left,-0.9418318981343808,-0.6700184827080153,0.14423400111712142,0,0
3966,incongruent,0,0.4189828,left,-0.8699254100219103,-0.5142608225506918,0.14721841040937295,0,0
3966,incongruent,1,0.6628196,left,-0.41125242235217213,-0.5142608225506918,0.14721841040937295,0,0
3966,incongruent,1,0.5850822,right,-0.5360029288007695,-0.5142608225506918,0.14721841040937295,0,0
3966,congruent,1,0.5509273,right,-0.5961524204580988,-0.6700184827080153,0.14423400111712142,0,0
3966,incongruent,1,0.6338175,left,-0.455994220872672,-0.5142608225506918,0.14721841040937295,0,0
3968,incongruent,0,0.560635,right,-0.5786852090929295,-0.5367095301242102,0.12600618902244345,0,0
3968,congruent,1,0.6249236,left,-0.4701258767176532,-0.6887902120288905,0.13880159181936882,0,0
3968,congruent,1,0.5479175,right,-0.6016305508127813,-0.6887902120288905,0.13880159181936882,0,0
3968,incongruent,1,0.6199788,left,-0.4780699950759995,-0.5367095301242102,0.12600618902244345,0,0
3968,congruent,1,0.4938355,left,-0.7055528132010948,-0.6887902120288905,0.13880159181936882,0,0
3968,incongruent,1,0.6189639,right,-0.47970832786897,-0.5367095301242102,0.12600618902244345,0,0
3968,congruent,1,0.4908327,right,-0.7116519424479181,-0.6887902120288905,0.13880159181936882,0,0
3968,incongruent,1,0.634835,right,-0.45439015637404706,-0.5367095301242102,0.12600618902244345,0,0
3968,congruent,1,0.4087207,left,-0.8947232412971348,-0.6887902120288905,0.13880159181936882,0,0
3968,congruent,1,0.4978931,left,-0.6973698836344846,-0.6887902120288905,0.13880159181936882,0,0
3968,incongruent,1,0.560856,left,-0.578291090900522,-0.5367095301242102,0.12600618902244345,0,0
3968,incongruent,1,0.5369827,right,-0.6217894010071169,-0.5367095301242102,0.12600618902244345,0,0
3968,congruent,1,0.4560167,right,-0.785225847331332,-0.6887902120288905,0.13880159181936882,0,0
3968,congruent,1,0.5376322,right,-0.6205805957335477,-0.6887902120288905,0.13880159181936882,0,0
3968,incongruent,1,0.6749803,right,-0.39307177372068824,-0.5367095301242102,0.12600618902244345,0,0
3968,incongruent,1,0.6278615,left,-0.4654356782380433,-0.5367095301242102,0.12600618902244345,0,0
3968,incongruent,1,0.5459815,right,-0.6051701865951493,-0.5367095301242102,0.12600618902244345,0,0
3968,congruent,1,0.5519218,right,-0.5943489094073784,-0.6887902120288905,0.13880159181936882,0,0
3968,congruent,1,0.4730431,left,-0.7485687741340258,-0.6887902120288905,0.13880159181936882,0,0
3968,incongruent,1,0.5027367,left,-0.6876887051795506,-0.5367095301242102,0.12600618902244345,0,0
3968,congruent,1,0.4550763,right,-0.7872901817822777,-0.6887902120288905,0.13880159181936882,0,0
3968,congruent,1,0.5268285,left,-0.6408802103485851,-0.6887902120288905,0.13880159181936882,0,0
3968,incongruent,0,0.5460284,right,-0.6050842899379325,-0.5367095301242102,0.12600618902244345,0,0
3968,incongruent,1,0.6128341,right,-0.48966101588984934,-0.5367095301242102,0.12600618902244345,0,0
3968,congruent,1,0.4679766,right,-0.7593369843145319,-0.6887902120288905,0.13880159181936882,0,0
3968,incongruent,1,0.5479178,left,-0.6016300032852466,-0.5367095301242102,0.12600618902244345,0,0
3968,incongruent,1,0.6538296,right,-0.4249085119328218,-0.5367095301242102,0.12600618902244345,0,0
3968,incongruent,1,0.5609619,right,-0.5781022902042333,-0.5367095301242102,0.12600618902244345,0,0
3968,congruent,1,0.6068826,left,-0.4994199168429742,-0.6887902120288905,0.13880159181936882,0,0
3968,incongruent,1,0.5180547,left,-0.65767444384218,-0.5367095301242102,0.12600618902244345,0,0
3968,congruent,1,0.5849375,left,-0.5362502750646618,-0.6887902120288905,0.13880159181936882,0,0
3968,congruent,1,0.4758592,right,-0.7426332668269967,-0.6887902120288905,0.13880159181936882,0,0
3968,incongruent,1,0.7488637,left,-0.2891982879925103,-0.5367095301242102,0.12600618902244345,0,0
3968,congruent,1,0.6870563,left,-0.3753390396080859,-0.6887902120288905,0.13880159181936882,0,0
3968,incongruent,1,0.6678776,right,-0.4036503557677403,-0.5367095301242102,0.12600618902244345,0,0
3968,congruent,1,0.5708911,right,-0.5605568055536535,-0.6887902120288905,0.13880159181936882,0,0
3968,congruent,1,0.4268987,right,-0.8512085304325082,-0.6887902120288905,0.13880159181936882,0,0
3968,congruent,1,0.4158596,left,-0.8774075756868165,-0.6887902120288905,0.13880159181936882,0,0
3968,incongruent,1,0.5299192,right,-0.635030736888272,-0.5367095301242102,0.12600618902244345,0,0
3968,incongruent,1,0.5429359,left,-0.6107640138985375,-0.5367095301242102,0.12600618902244345,0,0
3968,congruent,1,0.5260615,right,-0.64233715292696425,-0.6887902120288905,0.13880159181936882,0,0
3968,incongruent,0,0.4088262,right,-0.8944651521267505,-0.5367095301242102,0.12600618902244345,0,0
3968,incongruent,1,0.6119601,right,-0.49108819467359904,-0.5367095301242102,0.12600618902244345,0,0
3968,incongruent,1,0.6599205,left,-0.4156359057623517,-0.5367095301242102,0.12600618902244345,0,0
3968,congruent,1,0.4649911,left,-0.765737013362895,-0.6887902120288905,0.13880159181936882,0,0
3968,incongruent,1,0.6428557,right,-0.4418349967260024,-0.5367095301242102,0.12600618902244345,0,0
3968,congruent,1,0.4010135,right,-0.9137601864068379,-0.6887902120288905,0.13880159181936882,0,0
3968,congruent,1,0.4728252,left,-0.7490295148182303,-0.6887902120288905,0.13880159181936882,0,0
3971,incongruent,1,0.4690286,left,-0.7570915315848771,-0.569424987865072,0.14006131015601977,0,0
3971,incongruent,1,0.4748452,right,-0.744766422799568,-0.569424987865072,0.14006131015601977,0,0
3971,congruent,1,0.5910193,left,-0.5259066055948688,-0.5981060647899049,0.1515521306408667,0,0
3971,congruent,1,0.5229367,left,-0.6482948547470189,-0.5981060647899049,0.1515521306408667,0,0
3971,incongruent,1,0.6047929,left,-0.5028691936037107,-0.569424987865072,0.14006131015601977,0,0
3971,incongruent,1,0.482056,right,-0.729694989107595,-0.569424987865072,0.14006131015601977,0,0
3971,congruent,1,0.615987,right,-0.4845294195674116,-0.5981060647899049,0.1515521306408667,0,0
3971,congruent,1,0.6048066,right,-0.5028465414779442,-0.5981060647899049,0.1515521306408667,0,0
3971,congruent,1,0.4589298,left,-0.7788580217947568,-0.5981060647899049,0.1515521306408667,0,0
3971,incongruent,1,0.5219736,left,-0.6501382670910858,-0.569424987865072,0.14006131015601977,0,0
3971,incongruent,1,0.462944,left,-0.7701491825349573,-0.569424987865072,0.14006131015601977,0,0
3971,congruent,1,0.4639007,left,-0.768084758279684,-0.5981060647899049,0.1515521306408667,0,0
3971,incongruent,1,0.5609147,right,-0.5781864349310738,-0.569424987865072,0.14006131015601977,0,0
3971,congruent,1,0.5468986,right,-0.6034918685156633,-0.5981060647899049,0.1515521306408667,0,0
3971,incongruent,1,0.6631513,right,-0.4107521097028989,-0.569424987865072,0.14006131015601977,0,0
3971,congruent,1,0.5289166,right,-0.6369245155074755,-0.5981060647899049,0.1515521306408667,0,0
3971,congruent,1,0.413832,left,-0.8822951846161969,-0.5981060647899049,0.1515521306408667,0,0
3971,incongruent,1,0.5080107,right,-0.6772527686333508,-0.569424987865072,0.14006131015601977,0,0
3971,congruent,1,0.4839487,right,-0.7257763696185635,-0.5981060647899049,0.1515521306408667,0,0
3971,incongruent,1,0.5508632,left,-0.5962687765168456,-0.569424987865072,0.14006131015601977,0,0
3971,incongruent,1,0.5751023,right,-0.553207340965957,-0.569424987865072,0.14006131015601977,0,0
3971,incongruent,1,0.465972,left,-0.7636297324986273,-0.569424987865072,0.14006131015601977,0,0
3971,congruent,1,0.5399395,left,-0.6162981827374716,-0.5981060647899049,0.1515521306408667,0,0
3971,congruent,1,0.6239156,right,-0.47174017617093894,-0.5981060647899049,0.1515521306408667,0,0
3971,congruent,1,0.6069288,left,-0.49934379299041803,-0.5981060647899049,0.1515521306408667,0,0
3971,incongruent,1,0.5219663,right,-0.6501522525705185,-0.569424987865072,0.14006131015601977,0,0
3971,congruent,1,0.6599197,right,-0.4156371180303218,-0.5981060647899049,0.1515521306408667,0,0
3971,incongruent,1,0.6809099,right,-0.38432528701894714,-0.569424987865072,0.14006131015601977,0,0
3971,congruent,1,0.502899,left,-0.6873659242730871,-0.5981060647899049,0.1515521306408667,0,0
3971,incongruent,1,0.5580298,left,-0.5833429130089022,-0.569424987865072,0.14006131015601977,0,0
3971,congruent,1,0.7479162,right,-0.2904643393692841,-0.5981060647899049,0.1515521306408667,0,0
3971,incongruent,1,0.654937,left,-0.42321623117889323,-0.569424987865072,0.14006131015601977,0,0
3971,incongruent,1,0.6749342,left,-0.3931400743427171,-0.569424987865072,0.14006131015601977,0,0
3971,congruent,1,0.701897,left,-0.35396860936801683,-0.5981060647899049,0.1515521306408667,0,0
3971,incongruent,1,0.7628506,right,-0.2706930728990168,-0.569424987865072,0.14006131015601977,0,0
3971,congruent,1,0.4850119,left,-0.7235818522631844,-0.5981060647899049,0.1515521306408667,0,0
3971,incongruent,1,0.6698579,right,-0.4006896786435338,-0.569424987865072,0.14006131015601977,0,0
3971,congruent,1,0.5979857,right,-0.514188438360905,-0.5981060647899049,0.1515521306408667,0,0
3971,incongruent,1,0.6108855,left,-0.49284573508036067,-0.569424987865072,0.14006131015601977,0,0
3971,congruent,1,0.4567644,right,-0.7835875571273933,-0.5981060647899049,0.1515521306408667,0,0
3971,incongruent,1,0.5049548,right,-0.6832863586630793,-0.569424987865072,0.14006131015601977,0,0
3971,congruent,1,0.5899927,right,-0.5276451150402726,-0.5981060647899049,0.1515521306408667,0,0
3971,congruent,1,0.5018803,right,-0.6893936339383661,-0.5981060647899049,0.1515521306408667,0,0
3971,incongruent,1,0.562039,left,-0.5761840364783753,-0.569424987865072,0.14006131015601977,0,0
3971,congruent,1,0.630915,left,-0.46058413232928175,-0.5981060647899049,0.1515521306408667,0,0
3971,incongruent,1,0.5949204,right,-0.519327663898657,-0.569424987865072,0.14006131015601977,0,0
3971,congruent,1,0.4659213,left,-0.7637385432391918,-0.5981060647899049,0.1515521306408667,0,0
3971,incongruent,1,0.5740782,left,-0.554989655008181,-0.569424987865072,0.14006131015601977,0,0
3974,congruent,1,0.5051508,left,-0.6828982804216364,-0.49856999628456383,0.11944972460344977,0,0
3974,congruent,1,0.5569085,left,-0.5853543254396069,-0.49856999628456383,0.11944972460344977,0,0
3974,incongruent,1,0.5508428,right,-0.5963058099903901,-0.3997683233277302,0.14779627420330607,0,0
3974,congruent,1,0.6769364,right,-0.3901779543528786,-0.49856999628456383,0.11944972460344977,0,0
3974,incongruent,1,0.6490355,left,-0.43226786423626185,-0.3997683233277302,0.14779627420330607,0,0
3974,congruent,1,0.5478097,right,-0.6018273151175239,-0.49856999628456383,0.11944972460344977,0,0
3974,incongruent,1,0.6589846,right,-0.417055113493199,-0.3997683233277302,0.14779627420330607,0,0
3974,incongruent,1,0.697917,left,-0.3596550944650439,-0.3997683233277302,0.14779627420330607,0,0
3974,congruent,1,0.7308221,left,-0.31358521410356516,-0.49856999628456383,0.11944972460344977,0,0
3974,congruent,1,0.6010408,right,-0.5090924598958965,-0.49856999628456383,0.11944972460344977,0,0
3974,congruent,1,0.5239072,right,-0.6464407095816577,-0.49856999628456383,0.11944972460344977,0,0
3974,incongruent,1,0.7410095,right,-0.29974183325541176,-0.3997683233277302,0.14779627420330607,0,0
3974,incongruent,1,0.7137993,left,-0.33715344859341134,-0.3997683233277302,0.14779627420330607,0,0
3974,incongruent,1,0.5809841,left,-0.5430318891139926,-0.3997683233277302,0.14779627420330607,0,0
3974,incongruent,1,0.5978263,right,-0.5144550354529964,-0.3997683233277302,0.14779627420330607,0,0
3974,congruent,1,0.5419969,left,-0.6124949971160432,-0.49856999628456383,0.11944972460344977,0,0
3974,congruent,1,0.7210653,right,-0.3270255771436346,-0.49856999628456383,0.11944972460344977,0,0
3974,incongruent,1,0.636929,right,-0.4510970895907005,-0.3997683233277302,0.14779627420330607,0,0
3974,incongruent,1,0.5717827,left,-0.5589962548856604,-0.3997683233277302,0.14779627420330607,0,0
3974,congruent,1,0.5799716,right,-0.5447761421577634,-0.49856999628456383,0.11944972460344977,0,0
3974,congruent,1,0.6449404,left,-0.4385973695565693,-0.49856999628456383,0.11944972460344977,0,0
3974,incongruent,1,0.7068807,right,-0.34689336848378577,-0.3997683233277302,0.14779627420330607,0,0
3974,congruent,1,0.5928663,left,-0.5227863691488588,-0.49856999628456383,0.11944972460344977,0,0
3974,incongruent,1,1.0618261,left,0.059990161765686556,-0.3997683233277302,0.14779627420330607,0,0
3974,congruent,1,0.7328552,left,-0.31080714094827394,-0.49856999628456383,0.11944972460344977,0,0
3974,incongruent,1,0.6659824,right,-0.40649203521735855,-0.3997683233277302,0.14779627420330607,0,0
3974,congruent,1,0.5339596,right,-0.6274350983146703,-0.49856999628456383,0.11944972460344977,0,0
3974,incongruent,1,0.7388674,left,-0.30263680579813373,-0.3997683233277302,0.14779627420330607,0,0
3974,congruent,1,0.6240039,right,-0.47159866063224065,-0.49856999628456383,0.11944972460344977,0,0
3974,incongruent,1,0.7378515,right,-0.3040126941412219,-0.3997683233277302,0.14779627420330607,0,0
3974,congruent,1,0.6169779,left,-0.4829220741947454,-0.49856999628456383,0.11944972460344977,0,0
3974,incongruent,1,0.6078819,left,-0.49777465930471937,-0.3997683233277302,0.14779627420330607,0,0
3974,congruent,1,0.5578678,right,-0.5836332622329493,-0.49856999628456383,0.11944972460344977,0,0
3974,congruent,1,0.6550777,left,-0.4230014244281888,-0.49856999628456383,0.11944972460344977,0,0
3974,incongruent,1,0.7530667,right,-0.28360147608786873,-0.3997683233277302,0.14779627420330607,0,0
3974,incongruent,1,0.5659356,right,-0.5692749881712218,-0.3997683233277302,0.14779627420330607,0,0
3974,incongruent,1,0.5548601,left,-0.5890392690832793,-0.3997683233277302,0.14779627420330607,0,0
3974,incongruent,1,0.8278044,left,-0.18897838438808198,-0.3997683233277302,0.14779627420330607,0,0
3974,congruent,1,0.5770334,left,-0.5498551285340937,-0.49856999628456383,0.11944972460344977,0,0
3974,congruent,1,0.5918217,right,-0.5245498718951015,-0.49856999628456383,0.11944972460344977,0,0
3974,incongruent,1,0.7105958,left,-0.341651505910848,-0.3997683233277302,0.14779627420330607,0,0
3974,congruent,1,0.6273581,left,-0.4662377690068434,-0.49856999628456383,0.11944972460344977,0,0
3974,incongruent,1,0.5889098,right,-0.529482247974626,-0.3997683233277302,0.14779627420330607,0,0
3974,congruent,1,0.7049005,right,-0.34969862088208764,-0.49856999628456383,0.11944972460344977,0,0
3974,congruent,1,0.7280603,right,-0.31737140454530915,-0.49856999628456383,0.11944972460344977,0,0
3974,congruent,1,0.5048405,left,-0.6835127411793935,-0.49856999628456383,0.11944972460344977,0,0
3974,incongruent,1,0.6749347,right,-0.3931393335300352,-0.3997683233277302,0.14779627420330607,0,0
3974,incongruent,1,0.6759111,left,-0.391693720462963,-0.3997683233277302,0.14779627420330607,0,0
3975,incongruent,1,0.7125747,left,-0.3388705302296177,-0.47606301170116816,0.13731780882428693,0,0
3975,congruent,1,0.4928924,right,-0.707464384338755,-0.6441087477639855,0.12850452424611006,0,0
3975,congruent,1,0.5007504,left,-0.6916475056347311,-0.6441087477639855,0.12850452424611006,0,0
3975,incongruent,1,0.6129814,right,-0.4894206860837587,-0.47606301170116816,0.13731780882428693,0,0
3975,congruent,1,0.5760633,left,-0.5515377284910173,-0.6441087477639855,0.12850452424611006,0,0
3975,congruent,1,0.5189318,right,-0.6559828110019053,-0.6441087477639855,0.12850452424611006,0,0
3975,incongruent,1,0.6357546,right,-0.45294263915751987,-0.47606301170116816,0.13731780882428693,0,0
3975,incongruent,1,0.6079422,left,-0.4976754673244823,-0.47606301170116816,0.13731780882428693,0,0
3975,congruent,1,0.5019188,right,-0.6893169253618812,-0.6441087477639855,0.12850452424611006,0,0
3975,incongruent,1,0.6018798,right,-0.5076975213836663,-0.47606301170116816,0.13731780882428693,0,0
3975,incongruent,1,0.6979239,right,-0.35964520795147337,-0.47606301170116816,0.13731780882428693,0,0
3975,incongruent,1,0.9569592,left,-0.04399452166684484,-0.47606301170116816,0.13731780882428693,0,0
3975,congruent,1,0.4690047,left,-0.7571424892641092,-0.6441087477639855,0.12850452424611006,0,0
3975,congruent,1,0.4749734,left,-0.7444964765155544,-0.6441087477639855,0.12850452424611006,0,0
3975,congruent,1,0.5390238,right,-0.6179955532038246,-0.6441087477639855,0.12850452424611006,0,0
3975,incongruent,1,0.560844,left,-0.5783124869957355,-0.47606301170116816,0.13731780882428693,0,0
3975,incongruent,1,0.4898407,left,-0.7136750427754058,-0.47606301170116816,0.13731780882428693,0,0
3975,incongruent,1,0.5999091,left,-0.5109771352432749,-0.47606301170116816,0.13731780882428693,0,0
3975,congruent,1,0.5462581,left,-0.6046637043069905,-0.6441087477639855,0.12850452424611006,0,0
3975,congruent,1,0.5936319,left,-0.5214958486807194,-0.6441087477639855,0.12850452424611006,0,0
3975,incongruent,1,0.5691142,right,-0.5636741620062585,-0.47606301170116816,0.13731780882428693,0,0
3975,congruent,1,0.534973,right,-0.6255390006493666,-0.6441087477639855,0.12850452424611006,0,0
3975,incongruent,1,0.6520232,right,-0.42767513486645176,-0.47606301170116816,0.13731780882428693,0,0
3975,congruent,1,0.5787759,right,-0.5468399229631467,-0.6441087477639855,0.12850452424611006,0,0
3975,congruent,1,0.563989,left,-0.5727205312203741,-0.6441087477639855,0.12850452424611006,0,0
3975,incongruent,1,0.7238468,left,-0.3231755111972717,-0.47606301170116816,0.13731780882428693,0,0
3975,incongruent,1,0.5086886,right,-0.6759192374693981,-0.47606301170116816,0.13731780882428693,0,0
3975,congruent,1,0.4340113,right,-0.8346847083543261,-0.6441087477639855,0.12850452424611006,0,0
3975,incongruent,1,0.5860485,left,-0.5343527283247977,-0.47606301170116816,0.13731780882428693,0,0
3975,congruent,1,0.5678878,left,-0.5658314149849027,-0.6441087477639855,0.12850452424611006,0,0
3975,incongruent,1,0.578005,right,-0.548172759828144,-0.47606301170116816,0.13731780882428693,0,0
3975,congruent,1,0.4508955,right,-0.7965196736448197,-0.6441087477639855,0.12850452424611006,0,0
3975,congruent,1,0.4397681,right,-0.8215077364616509,-0.6441087477639855,0.12850452424611006,0,0
3975,congruent,1,0.4220092,right,-0.8627281642358953,-0.6441087477639855,0.12850452424611006,0,0
3975,congruent,1,0.459934,left,-0.7766722780538562,-0.6441087477639855,0.12850452424611006,0,0
3975,incongruent,1,0.5608389,right,-0.5783215804748284,-0.47606301170116816,0.13731780882428693,0,0
3975,incongruent,1,0.688978,left,-0.3725459388120796,-0.47606301170116816,0.13731780882428693,0,0
3975,incongruent,1,0.5579993,right,-0.5833975710818997,-0.47606301170116816,0.13731780882428693,0,0
3975,incongruent,1,0.6179294,left,-0.48138106753247367,-0.47606301170116816,0.13731780882428693,0,0
3975,congruent,1,0.6670075,left,-0.4049539887519198,-0.6441087477639855,0.12850452424611006,0,0
3975,congruent,1,0.6108945,left,-0.49283100247710937,-0.6441087477639855,0.12850452424611006,0,0
3975,incongruent,1,0.604033,right,-0.5041264467782115,-0.47606301170116816,0.13731780882428693,0,0
3975,congruent,1,0.5049723,right,-0.6832517026963234,-0.6441087477639855,0.12850452424611006,0,0
3975,congruent,1,0.6368537,left,-0.4512153201179132,-0.6441087477639855,0.12850452424611006,0,0
3975,incongruent,1,0.6370099,left,-0.45097008192948723,-0.47606301170116816,0.13731780882428693,0,0
3975,congruent,1,0.617812,right,-0.4815710749245593,-0.6441087477639855,0.12850452424611006,0,0
3975,incongruent,1,0.7190878,right,-0.32977181466911576,-0.47606301170116816,0.13731780882428693,0,0
3975,incongruent,1,0.5718852,left,-0.5588170070458383,-0.47606301170116816,0.13731780882428693,0,0
3976,congruent,1,0.5543782,right,-0.5899081536688872,-0.5087182480947637,0.13316951936214116,0,0
3976,congruent,1,0.5029825,right,-0.6871999007401126,-0.5087182480947637,0.13316951936214116,0,0
3976,incongruent,1,0.7180179,right,-0.3312607798825522,-0.3249200549400188,0.12273825213356689,0,0
3976,congruent,1,0.5708314,left,-0.5606613843809157,-0.5087182480947637,0.13316951936214116,0,0
3976,congruent,1,0.5960653,left,-0.5174050541600682,-0.5087182480947637,0.13316951936214116,0,0
3976,incongruent,1,0.8828677,left,-0.12457991972840674,-0.3249200549400188,0.12273825213356689,0,0
3976,incongruent,1,0.757892,right,-0.2772143837021167,-0.3249200549400188,0.12273825213356689,0,0
3976,incongruent,1,0.6668767,left,-0.4051501077259945,-0.3249200549400188,0.12273825213356689,0,0
3976,congruent,1,0.6459164,left,-0.4370851953386661,-0.5087182480947637,0.13316951936214116,0,0
3976,congruent,1,0.5168531,right,-0.6599965841139076,-0.5087182480947637,0.13316951936214116,0,0
3976,incongruent,1,0.6149037,left,-0.4862896088022411,-0.3249200549400188,0.12273825213356689,0,0
3976,congruent,1,0.5978826,right,-0.5143608653752433,-0.5087182480947637,0.13316951936214116,0,0
3976,congruent,1,0.6649894,left,-0.4079841783029478,-0.5087182480947637,0.13316951936214116,0,0
3976,incongruent,1,0.6898442,left,-0.37128950398828475,-0.3249200549400188,0.12273825213356689,0,0
3976,incongruent,1,0.6840083,right,-0.3797852269302851,-0.3249200549400188,0.12273825213356689,0,0
3976,incongruent,1,0.7669762,right,-0.26529950808328306,-0.3249200549400188,0.12273825213356689,0,0
3976,incongruent,1,0.7008848,left,-0.35541174211420734,-0.3249200549400188,0.12273825213356689,0,0
3976,congruent,1,0.5159915,right,-0.6616649865044705,-0.5087182480947637,0.13316951936214116,0,0
3976,congruent,1,0.5300548,right,-0.6347748815545757,-0.5087182480947637,0.13316951936214116,0,0
3976,incongruent,1,0.6130469,right,-0.48931383700032033,-0.3249200549400188,0.12273825213356689,0,0
3976,congruent,1,0.5868407,left,-0.5330018758820139,-0.5087182480947637,0.13316951936214116,0,0
3976,congruent,1,0.8399178,left,-0.17445124907595744,-0.5087182480947637,0.13316951936214116,0,0
3976,incongruent,1,0.8088573,left,-0.2121327680879839,-0.3249200549400188,0.12273825213356689,0,0
3976,incongruent,1,0.7970228,right,-0.2268719933238125,-0.3249200549400188,0.12273825213356689,0,0
3976,incongruent,1,0.6410648,right,-0.4446247351272416,-0.3249200549400188,0.12273825213356689,0,0
3976,congruent,1,0.5939592,left,-0.5209446488472299,-0.5087182480947637,0.13316951936214116,0,0
3976,congruent,1,0.6289808,right,-0.4636545473898722,-0.5087182480947637,0.13316951936214116,0,0
3976,congruent,1,0.6719075,left,-0.39763459674297813,-0.5087182480947637,0.13316951936214116,0,0
3976,incongruent,1,0.6839662,right,-0.37984677778523646,-0.3249200549400188,0.12273825213356689,0,0
3976,incongruent,1,0.6819765,left,-0.3827600792103534,-0.3249200549400188,0.12273825213356689,0,0
3976,congruent,1,0.5478442,right,-0.601764339026239,-0.5087182480947637,0.13316951936214116,0,0
3976,incongruent,1,0.6700413,left,-0.40041592670585774,-0.3249200549400188,0.12273825213356689,0,0
3976,congruent,1,0.5328745,right,-0.6294693422035599,-0.5087182480947637,0.13316951936214116,0,0
3976,incongruent,1,0.6388978,left,-0.44801077479814344,-0.3249200549400188,0.12273825213356689,0,0
3976,congruent,1,0.8249458,left,-0.19243759177529354,-0.5087182480947637,0.13316951936214116,0,0
3976,incongruent,1,0.9379546,left,-0.06405373200014995,-0.3249200549400188,0.12273825213356689,0,0
3976,congruent,1,0.5748638,right,-0.5536221358080302,-0.5087182480947637,0.13316951936214116,0,0
3976,congruent,1,0.6159508,left,-0.48458818876827603,-0.5087182480947637,0.13316951936214116,0,0
3976,incongruent,1,0.7908731,right,-0.23461775392037687,-0.3249200549400188,0.12273825213356689,0,0
3976,incongruent,1,0.8779403,right,-0.13017668310300673,-0.3249200549400188,0.12273825213356689,0,0
3976,congruent,1,0.6451046,left,-0.4383428047919498,-0.5087182480947637,0.13316951936214116,0,0
3976,congruent,1,0.6089776,right,-0.4959737935578954,-0.5087182480947637,0.13316951936214116,0,0
3976,congruent,1,0.6688704,right,-0.40216495959352794,-0.5087182480947637,0.13316951936214116,0,0
3976,congruent,1,0.5219692,left,-0.6501466966717104,-0.5087182480947637,0.13316951936214116,0,0
3976,incongruent,1,0.8589443,left,-0.15205120194078178,-0.3249200549400188,0.12273825213356689,0,0
3976,incongruent,1,0.6698719,right,-0.4006687789068847,-0.3249200549400188,0.12273825213356689,0,0
3976,incongruent,1,0.6298994,left,-0.46219515488685536,-0.3249200549400188,0.12273825213356689,0,0
3976,incongruent,1,0.6879354,right,-0.37406034080607486,-0.3249200549400188,0.12273825213356689,0,0
3977,congruent,1,0.5935688,right,-0.5216021491572258,-0.6505654526223553,0.14080126310082827,0,0
3977,congruent,1,0.5129622,right,-0.6675531207367086,-0.6505654526223553,0.14080126310082827,0,0
3977,incongruent,1,0.771872,right,-0.25893654581302417,-0.5277135111479232,0.19871538786802165,0,0
3977,incongruent,1,0.5751444,left,-0.5531341392779733,-0.5277135111479232,0.19871538786802165,0,0
3977,incongruent,1,0.9519406,left,-0.04925264109540127,-0.5277135111479232,0.19871538786802165,0,0
3977,congruent,1,0.4938648,left,-0.705493483463099,-0.6505654526223553,0.14080126310082827,0,0
3977,congruent,1,0.5499404,left,-0.5979453702637472,-0.6505654526223553,0.14080126310082827,0,0
3977,incongruent,1,0.6588443,right,-0.4172680394664115,-0.5277135111479232,0.19871538786802165,0,0
3977,incongruent,1,0.5300845,right,-0.6347188511819489,-0.5277135111479232,0.19871538786802165,0,0
3977,incongruent,1,0.5159201,left,-0.6618033704515334,-0.5277135111479232,0.19871538786802165,0,0
3977,congruent,1,0.4999865,right,-0.6931741809244518,-0.6505654526223553,0.14080126310082827,0,0
3977,incongruent,0,0.3739017,left,-0.9837623503391724,-0.5277135111479232,0.19871538786802165,0,0
3977,congruent,1,0.5700216,right,-0.5620810241346865,-0.6505654526223553,0.14080126310082827,0,0
3977,congruent,1,0.4548976,left,-0.787682940304906,-0.6505654526223553,0.14080126310082827,0,0
3977,congruent,1,0.5559469,left,-0.5870824928894358,-0.6505654526223553,0.14080126310082827,0,0
3977,incongruent,0,0.4253315,right,-0.8548864140996287,-0.5277135111479232,0.19871538786802165,0,0
3977,incongruent,1,0.6440495,left,-0.43997969247758234,-0.5277135111479232,0.19871538786802165,0,0
3977,congruent,1,0.5028797,right,-0.68740430249685,-0.6505654526223553,0.14080126310082827,0,0
3977,incongruent,1,0.6307562,left,-0.4608358619413052,-0.5277135111479232,0.19871538786802165,0,0
3977,incongruent,1,0.6170914,right,-0.4827381299051986,-0.5277135111479232,0.19871538786802165,0,0
3977,congruent,1,0.4549628,left,-0.7875396216153321,-0.6505654526223553,0.14080126310082827,0,0
3977,congruent,1,0.5508963,right,-0.5962086908084674,-0.6505654526223553,0.14080126310082827,0,0
3977,incongruent,1,0.65221,right,-0.4273886830244388,-0.5277135111479232,0.19871538786802165,0,0
3977,congruent,1,0.4628425,left,-0.770368455553967,-0.6505654526223553,0.14080126310082827,0,0
3977,incongruent,1,0.5888179,left,-0.5296383112143486,-0.5277135111479232,0.19871538786802165,0,0
3977,incongruent,1,0.6540474,left,-0.42457545308705374,-0.5277135111479232,0.19871538786802165,0,0
3977,incongruent,1,0.6079514,right,-0.49766033442140556,-0.5277135111479232,0.19871538786802165,0,0
3977,incongruent,1,0.6698329,right,-0.4007270006882966,-0.5277135111479232,0.19871538786802165,0,0
3977,congruent,1,0.7361399,left,-0.30633509679472526,-0.6505654526223553,0.14080126310082827,0,0
3977,congruent,1,0.646993,right,-0.43541980370514266,-0.6505654526223553,0.14080126310082827,0,0
3977,congruent,1,0.4708412,right,-0.7532343968046255,-0.6505654526223553,0.14080126310082827,0,0
3977,congruent,1,0.4949169,left,-0.7033654092945466,-0.6505654526223553,0.14080126310082827,0,0
3977,congruent,1,0.4318938,right,-0.8395755542933271,-0.6505654526223553,0.14080126310082827,0,0
3977,incongruent,1,0.5939226,right,-0.5210062711399726,-0.5277135111479232,0.19871538786802165,0,0
3977,congruent,1,0.4510692,left,-0.7961345144425863,-0.6505654526223553,0.14080126310082827,0,0
3977,incongruent,1,0.600904,left,-0.5093200909827662,-0.5277135111479232,0.19871538786802165,0,0
3977,congruent,1,0.4260633,left,-0.8531673522021017,-0.6505654526223553,0.14080126310082827,0,0
3977,incongruent,1,0.5969839,right,-0.5158651341273871,-0.5277135111479232,0.19871538786802165,0,0
3977,congruent,1,0.5029012,right,-0.6873615496467943,-0.6505654526223553,0.14080126310082827,0,0
3977,incongruent,0,0.3878911,right,-0.9470306488571814,-0.5277135111479232,0.19871538786802165,0,0
3977,incongruent,1,0.6719558,left,-0.3975627144317032,-0.5277135111479232,0.19871538786802165,0,0
3977,congruent,1,0.6709766,right,-0.3990210159419416,-0.6505654526223553,0.14080126310082827,0,0
3977,congruent,1,0.5699669,left,-0.5621769900151177,-0.6505654526223553,0.14080126310082827,0,0
3977,congruent,1,0.4757957,left,-0.7427667185647941,-0.6505654526223553,0.14080126310082827,0,0
3977,incongruent,1,0.5679956,right,-0.565641606769863,-0.5277135111479232,0.19871538786802165,0,0
3977,congruent,1,0.5650299,right,-0.5708766288819463,-0.6505654526223553,0.14080126310082827,0,0
3977,incongruent,1,0.5621053,right,-0.5760660800913227,-0.5277135111479232,0.19871538786802165,0,0
3977,incongruent,1,0.5738852,left,-0.5553259026652377,-0.5277135111479232,0.19871538786802165,0,0
3979,incongruent,1,0.7828766,right,-0.24478019438964646,-0.08024778925339615,0.2358434668132907,0,0
3979,congruent,1,0.6559288,right,-0.4217030325139353,-0.468448280079702,0.11556263211408654,0,0
3979,congruent,1,0.6937548,left,-0.3656366950265095,-0.468448280079702,0.11556263211408654,0,0
3979,incongruent,1,1.1569014,right,0.14574522418249514,-0.08024778925339615,0.2358434668132907,0,0
3979,incongruent,1,0.9409077,left,-0.060910231348954645,-0.08024778925339615,0.2358434668132907,0,0
3979,congruent,1,0.5920481,left,-0.5241673973987339,-0.468448280079702,0.11556263211408654,0,0
3979,congruent,1,0.7149508,right,-0.33554154984453904,-0.468448280079702,0.11556263211408654,0,0
3979,incongruent,1,1.1268489,left,0.11942515330954474,-0.08024778925339615,0.2358434668132907,0,0
3979,incongruent,1,0.9389881,right,-0.06295247291062103,-0.08024778925339615,0.2358434668132907,0,0
3979,congruent,1,0.5967871,right,-0.5161948456077008,-0.468448280079702,0.11556263211408654,0,0
3979,congruent,1,0.7157976,left,-0.33435783354770177,-0.468448280079702,0.11556263211408654,0,0
3979,incongruent,1,0.7399088,right,-0.3012283436222373,-0.08024778925339615,0.2358434668132907,0,0
3979,incongruent,1,1.2449158,left,0.21906789710753571,-0.08024778925339615,0.2358434668132907,0,0
3979,congruent,1,0.630838,left,-0.4607061847438123,-0.468448280079702,0.11556263211408654,0,0
3979,congruent,1,0.6069531,right,-0.4993037561466308,-0.468448280079702,0.11556263211408654,0,0
3979,incongruent,1,0.9458907,left,-0.055628255717466914,-0.08024778925339615,0.2358434668132907,0,0
3979,incongruent,1,1.4817857,left,0.3932479145286953,-0.08024778925339615,0.2358434668132907,0,0
3979,incongruent,1,0.975999,right,-0.024293717159733445,-0.08024778925339615,0.2358434668132907,0,0
3979,congruent,1,0.7779205,left,-0.25113094511497175,-0.468448280079702,0.11556263211408654,0,0
3979,congruent,1,0.5938261,left,-0.5211687634251038,-0.468448280079702,0.11556263211408654,0,0
3979,congruent,1,0.5618835,right,-0.5764607459507671,-0.468448280079702,0.11556263211408654,0,0
3979,incongruent,1,0.8448386,right,-0.16860967578607633,-0.08024778925339615,0.2358434668132907,0,0
3979,congruent,1,0.5481007,right,-0.6012962497916737,-0.468448280079702,0.11556263211408654,0,0
3979,incongruent,1,1.1948144,left,0.17799085951350427,-0.08024778925339615,0.2358434668132907,0,0
3979,congruent,1,0.5689421,right,-0.563976607502693,-0.468448280079702,0.11556263211408654,0,0
3979,incongruent,1,0.6409506,left,-0.44480289211397045,-0.08024778925339615,0.2358434668132907,0,0
3979,congruent,1,0.5228779,left,-0.648407302976489,-0.468448280079702,0.11556263211408654,0,0
3979,incongruent,1,0.6411082,right,-0.4445570375544232,-0.08024778925339615,0.2358434668132907,0,0
3979,incongruent,1,0.9488267,right,-0.052529110325177666,-0.08024778925339615,0.2358434668132907,0,0
3979,congruent,1,0.7179796,left,-0.331314122593816,-0.468448280079702,0.11556263211408654,0,0
3979,congruent,1,0.6478903,right,-0.4340338870845095,-0.468448280079702,0.11556263211408654,0,0
3979,incongruent,1,1.077913,left,0.0750267642207044,-0.08024778925339615,0.2358434668132907,0,0
3979,incongruent,1,0.6376818,left,-0.44991586613404827,-0.08024778925339615,0.2358434668132907,0,0
3979,congruent,1,0.5600098,left,-0.5798009954060653,-0.468448280079702,0.11556263211408654,0,0
3979,congruent,1,0.5340425,right,-0.627279855173919,-0.468448280079702,0.11556263211408654,0,0
3979,congruent,1,0.6178957,right,-0.4814356059942807,-0.468448280079702,0.11556263211408654,0,0
3979,incongruent,1,1.1339337,right,0.12569273798791444,-0.08024778925339615,0.2358434668132907,0,0
3979,congruent,1,0.784986,left,-0.24208939575366784,-0.468448280079702,0.11556263211408654,0,0
3979,incongruent,1,1.2098977,left,0.19053581057993585,-0.08024778925339615,0.2358434668132907,0,0
3979,incongruent,1,0.8387642,right,-0.17582566088426502,-0.08024778925339615,0.2358434668132907,0,0
3979,congruent,1,0.5710572,left,-0.5602658992119717,-0.468448280079702,0.11556263211408654,0,0
3979,incongruent,1,0.7219764,left,-0.32576282760415126,-0.08024778925339615,0.2358434668132907,0,0
3979,congruent,1,0.6968958,right,-0.36111937724545,-0.468448280079702,0.11556263211408654,0,0
3979,incongruent,1,0.9219192,right,-0.08129769484060183,-0.08024778925339615,0.2358434668132907,0,0
3979,incongruent,1,0.6650082,right,-0.4079559075752392,-0.08024778925339615,0.2358434668132907,0,0
3979,congruent,1,0.6111628,left,-0.4923919068564526,-0.468448280079702,0.11556263211408654,0,0
3979,congruent,1,0.5987113,right,-0.5129757670014539,-0.468448280079702,0.11556263211408654,0,0
3979,incongruent,1,0.9308758,left,-0.0716294155452243,-0.08024778925339615,0.2358434668132907,0,0
3980,congruent,1,0.7509557,right,-0.28640861697384246,-0.4962631396997734,0.1301065485080713,0,0
3980,incongruent,1,0.6261812,right,-0.46811549289758614,-0.3463333926629378,0.06929065698893132,0,0
3980,incongruent,1,0.6877417,left,-0.374341947589062,-0.3463333926629378,0.06929065698893132,0,0
3980,incongruent,1,0.6969943,right,-0.36097804616036094,-0.3463333926629378,0.06929065698893132,0,0
3980,congruent,1,0.608923,left,-0.4960634560476529,-0.4962631396997734,0.1301065485080713,0,0
3980,congruent,1,0.5408983,right,-0.6145240030196595,-0.4962631396997734,0.1301065485080713,0,0
3980,incongruent,1,0.7080356,left,-0.34526090406666343,-0.3463333926629378,0.06929065698893132,0,0
3980,congruent,1,0.5380076,left,-0.6198825925260771,-0.4962631396997734,0.1301065485080713,0,0
3980,congruent,1,0.6739754,right,-0.39456166725223757,-0.4962631396997734,0.1301065485080713,0,0
3980,incongruent,1,0.7128871,left,-0.3384322161267754,-0.3463333926629378,0.06929065698893132,0,0
3980,incongruent,1,0.6707849,right,-0.399306759721748,-0.3463333926629378,0.06929065698893132,0,0
3980,congruent,1,0.6778983,left,-0.38875800229286667,-0.4962631396997734,0.1301065485080713,0,0
3980,incongruent,1,0.6480187,left,-0.4338357250215559,-0.3463333926629378,0.06929065698893132,0,0
3980,congruent,1,0.7519087,right,-0.2851403719775043,-0.4962631396997734,0.1301065485080713,0,0
3980,congruent,1,0.5639283,left,-0.5728281632250584,-0.4962631396997734,0.1301065485080713,0,0
3980,incongruent,1,0.7071276,right,-0.34654414846505016,-0.3463333926629378,0.06929065698893132,0,0
3980,congruent,1,0.7159758,right,-0.33410891147536803,-0.4962631396997734,0.1301065485080713,0,0
3980,congruent,1,0.4778238,right,-0.7385132336943182,-0.4962631396997734,0.1301065485080713,0,0
3980,incongruent,1,0.7600646,left,-0.2743518493140556,-0.3463333926629378,0.06929065698893132,0,0
3980,incongruent,1,0.6928237,right,-0.36697971331209794,-0.3463333926629378,0.06929065698893132,0,0
3980,incongruent,1,0.7329819,right,-0.31063427044265574,-0.3463333926629378,0.06929065698893132,0,0
3980,congruent,1,0.716018,left,-0.334049972672683,-0.4962631396997734,0.1301065485080713,0,0
3980,incongruent,1,0.7989064,left,-0.224511486511083,-0.3463333926629378,0.06929065698893132,0,0
3980,congruent,1,0.7370486,left,-0.30510144595473354,-0.4962631396997734,0.1301065485080713,0,0
3980,congruent,1,0.5639587,left,-0.5727742571156568,-0.4962631396997734,0.1301065485080713,0,0
3980,incongruent,1,0.7079087,left,-0.34544014840606263,-0.3463333926629378,0.06929065698893132,0,0
3980,congruent,1,0.5768471,right,-0.5501780389249338,-0.4962631396997734,0.1301065485080713,0,0
3980,congruent,1,0.6458165,right,-0.43723987127855907,-0.4962631396997734,0.1301065485080713,0,0
3980,incongruent,1,0.6780162,left,-0.3885840975218842,-0.3463333926629378,0.06929065698893132,0,0
3980,congruent,1,0.567989,left,-0.5656532266456961,-0.4962631396997734,0.1301065485080713,0,0
3980,incongruent,1,0.6949552,right,-0.3639078959266625,-0.3463333926629378,0.06929065698893132,0,0
3980,incongruent,1,0.6609754,right,-0.4140386561618764,-0.3463333926629378,0.06929065698893132,0,0
3980,congruent,1,0.6049157,right,-0.5026661695028294,-0.4962631396997734,0.1301065485080713,0,0
3980,incongruent,1,0.7040363,left,-0.3509253616533947,-0.3463333926629378,0.06929065698893132,0,0
3980,incongruent,1,0.6809958,right,-0.38419914025252416,-0.3463333926629378,0.06929065698893132,0,0
3980,congruent,1,0.6480873,left,-0.43372986948186365,-0.4962631396997734,0.1301065485080713,0,0
3980,congruent,1,0.5668706,right,-0.5676242199951196,-0.4962631396997734,0.1301065485080713,0,0
3980,incongruent,1,0.7408771,left,-0.29992052439190264,-0.3463333926629378,0.06929065698893132,0,0
3980,incongruent,1,0.6829747,right,-0.38129746255717223,-0.3463333926629378,0.06929065698893132,0,0
3980,congruent,1,0.5019932,left,-0.6891687051988863,-0.4962631396997734,0.1301065485080713,0,0
3980,congruent,1,0.5299372,left,-0.6349967700225689,-0.4962631396997734,0.1301065485080713,0,0
3980,incongruent,1,0.7130034,left,-0.3382690899957606,-0.3463333926629378,0.06929065698893132,0,0
3980,incongruent,1,0.7071182,left,-0.3465574417695098,-0.3463333926629378,0.06929065698893132,0,0
3980,incongruent,1,0.8857424,right,-0.1213291155725481,-0.3463333926629378,0.06929065698893132,0,0
3980,congruent,1,0.6330173,right,-0.4572575270376476,-0.4962631396997734,0.1301065485080713,0,0
3980,incongruent,1,0.715882,right,-0.33423993007251396,-0.3463333926629378,0.06929065698893132,0,0
3980,congruent,1,0.5490552,right,-0.5995562960789743,-0.4962631396997734,0.1301065485080713,0,0
3980,congruent,1,0.5888817,left,-0.5295299643998258,-0.4962631396997734,0.1301065485080713,0,0
3982,congruent,1,0.6618245,left,-0.4127548639320487,-0.4978119456398205,0.10941181974619556,0,0
3982,congruent,1,0.6292716,right,-0.46319231897659424,-0.4978119456398205,0.10941181974619556,0,0
3982,incongruent,1,0.8171673,right,-0.20191143152356666,-0.36588498972059474,0.1188683803133562,0,0
3982,incongruent,1,0.5892269,right,-0.5289439403102314,-0.36588498972059474,0.1188683803133562,0,0
3982,incongruent,1,0.6631409,left,-0.41076779252151185,-0.36588498972059474,0.1188683803133562,0,0
3982,incongruent,1,0.6532089,left,-0.42585829274901094,-0.36588498972059474,0.1188683803133562,0,0
3982,congruent,1,0.5962696,right,-0.517062365202462,-0.4978119456398205,0.10941181974619556,0,0
3982,congruent,1,0.6882997,left,-0.37353092543437155,-0.4978119456398205,0.10941181974619556,0,0
3982,incongruent,1,0.8204361,left,-0.19791925082660958,-0.36588498972059474,0.1188683803133562,0,0
3982,incongruent,1,0.6742128,right,-0.3942094908981445,-0.36588498972059474,0.1188683803133562,0,0
3982,congruent,1,0.5621653,right,-0.5759593442217608,-0.4978119456398205,0.10941181974619556,0,0
3982,incongruent,1,0.6911886,left,-0.3693425546838586,-0.36588498972059474,0.1188683803133562,0,0
3982,incongruent,1,0.6531534,right,-0.42594326152074197,-0.36588498972059474,0.1188683803133562,0,0
3982,congruent,1,0.4944305,left,-0.7043486838029525,-0.4978119456398205,0.10941181974619556,0,0
3982,congruent,1,0.6719162,right,-0.3976216486159283,-0.4978119456398205,0.10941181974619556,0,0
3982,congruent,1,0.6808825,left,-0.3843655281012203,-0.4978119456398205,0.10941181974619556,0,0
3982,congruent,1,0.459723,right,-0.777131144791569,-0.4978119456398205,0.10941181974619556,0,0
3982,incongruent,1,0.8081305,right,-0.2130317236013715,-0.36588498972059474,0.1188683803133562,0,0
3982,congruent,1,0.6701907,left,-0.4001929802299955,-0.4978119456398205,0.10941181974619556,0,0
3982,congruent,1,0.6292949,right,-0.4631552927248982,-0.4978119456398205,0.10941181974619556,0,0
3982,incongruent,1,0.7363026,left,-0.3061141034443401,-0.36588498972059474,0.1188683803133562,0,0
3982,incongruent,1,0.6582893,right,-0.41811077862794727,-0.36588498972059474,0.1188683803133562,0,0
3982,congruent,1,0.5803944,left,-0.5440474065369149,-0.4978119456398205,0.10941181974619556,0,0
3982,incongruent,1,0.6090264,left,-0.49589366245811894,-0.36588498972059474,0.1188683803133562,0,0
3982,incongruent,1,0.5932855,right,-0.5220795455914478,-0.36588498972059474,0.1188683803133562,0,0
3982,congruent,1,0.6761833,left,-0.3912910858485791,-0.4978119456398205,0.10941181974619556,0,0
3982,incongruent,1,0.7572403,right,-0.2780746386649213,-0.36588498972059474,0.1188683803133562,0,0
3982,congruent,1,0.6290419,left,-0.4635574108277926,-0.4978119456398205,0.10941181974619556,0,0
3982,incongruent,1,0.7522545,left,-0.2846805814360363,-0.36588498972059474,0.1188683803133562,0,0
3982,congruent,1,0.6069229,right,-0.49935351411203455,-0.4978119456398205,0.10941181974619556,0,0
3982,incongruent,1,0.6273243,left,-0.46629164718351707,-0.36588498972059474,0.1188683803133562,0,0
3982,congruent,1,0.5591624,right,-0.5813153292359061,-0.4978119456398205,0.10941181974619556,0,0
3982,congruent,1,0.5312939,left,-0.6324399268635007,-0.4978119456398205,0.10941181974619556,0,0
3982,incongruent,1,0.71013250000000006,left,-0.34230370663975945,-0.36588498972059474,0.1188683803133562,0,0
3982,incongruent,1,0.6062621,right,-0.5004428781667309,-0.36588498972059474,0.1188683803133562,0,0
3982,congruent,1,0.5932897,right,-0.5220724663941073,-0.4978119456398205,0.10941181974619556,0,0
3982,incongruent,1,0.6800097,left,-0.3856482162078422,-0.36588498972059474,0.1188683803133562,0,0
3982,congruent,1,0.633088,left,-0.45714584596329544,-0.4978119456398205,0.10941181974619556,0,0
3982,incongruent,1,0.8432417,right,-0.1705016479586676,-0.36588498972059474,0.1188683803133562,0,0
3982,congruent,1,0.6114056,right,-0.49199471026083946,-0.4978119456398205,0.10941181974619556,0,0
3982,congruent,1,0.5312621,left,-0.6324997825323022,-0.4978119456398205,0.10941181974619556,0,0
3982,incongruent,1,0.81912720000000006,left,-0.1995158958333161,-0.36588498972059474,0.1188683803133562,0,0
3982,incongruent,1,0.6903632,left,-0.37053744306691605,-0.36588498972059474,0.1188683803133562,0,0
3982,incongruent,1,0.7483108,right,-0.2899368792858227,-0.36588498972059474,0.1188683803133562,0,0
3982,congruent,1,0.645176,right,-0.43823213119107135,-0.4978119456398205,0.10941181974619556,0,0
3982,congruent,1,0.6124053,left,-0.49036096076185814,-0.4978119456398205,0.10941181974619556,0,0
3982,congruent,1,0.7161533,right,-0.3338610287936897,-0.4978119456398205,0.10941181974619556,0,0
3982,incongruent,1,0.5581205,right,-0.5831803900938437,-0.36588498972059474,0.1188683803133562,0,0
3984,congruent,1,0.5581723,left,-0.5830875829019724,-0.5434876871937782,0.10950188579947884,0,0
3984,incongruent,1,0.7190569,right,-0.32981478670107445,-0.40139444217752884,0.08992826839078161,0,0
3984,incongruent,1,0.6223557,right,-0.47424348474363853,-0.40139444217752884,0.08992826839078161,0,0
3984,congruent,1,0.6236026,right,-0.4722419724678872,-0.5434876871937782,0.10950188579947884,0,0
3984,incongruent,1,0.7369378,left,-0.3052517865551743,-0.40139444217752884,0.08992826839078161,0,0
3984,congruent,1,0.5959798,right,-0.5175485051086047,-0.5434876871937782,0.10950188579947884,0,0
3984,incongruent,1,0.714944,left,-0.3355510610337539,-0.40139444217752884,0.08992826839078161,0,0
3984,congruent,1,0.6790492,left,-0.38706169454924,-0.5434876871937782,0.10950188579947884,0,0
3984,congruent,1,0.6620238,right,-0.4124537720297428,-0.5434876871937782,0.10950188579947884,0,0
3984,incongruent,1,0.7619147,left,-0.2719206718187108,-0.40139444217752884,0.08992826839078161,0,0
3984,incongruent,1,0.6520103,right,-0.42769491963425166,-0.40139444217752884,0.08992826839078161,0,0
3984,congruent,1,0.6069552,left,-0.4993002962477241,-0.5434876871937782,0.10950188579947884,0,0
3984,incongruent,1,0.7728646,right,-0.25765140744495124,-0.40139444217752884,0.08992826839078161,0,0
3984,congruent,1,0.5810849,right,-0.5428584054391802,-0.5434876871937782,0.10950188579947884,0,0
3984,congruent,1,0.5259971,left,-0.6424595795676104,-0.5434876871937782,0.10950188579947884,0,0
3984,incongruent,1,0.6860337,left,-0.37682852709843156,-0.40139444217752884,0.08992826839078161,0,0
3984,incongruent,1,0.59710510000000006,left,-0.5156621341827996,-0.40139444217752884,0.08992826839078161,0,0
3984,incongruent,1,0.763112,left,-0.2703504694793041,-0.40139444217752884,0.08992826839078161,0,0
3984,congruent,1,0.5748846,left,-0.553585953979028,-0.5434876871937782,0.10950188579947884,0,0
3984,congruent,1,0.6580085,right,-0.41853742980712494,-0.5434876871937782,0.10950188579947884,0,0
3984,congruent,1,0.537024,left,-0.6217124927345329,-0.5434876871937782,0.10950188579947884,0,0
3984,incongruent,1,0.7209883,right,-0.32713236929071315,-0.40139444217752884,0.08992826839078161,0,0
3984,congruent,1,0.6889755,right,-0.37254956738154876,-0.5434876871937782,0.10950188579947884,0,0
3984,incongruent,1,0.6299438,right,-0.46212466992488793,-0.40139444217752884,0.08992826839078161,0,0
3984,congruent,1,0.5240913,right,-0.6460893731973141,-0.5434876871937782,0.10950188579947884,0,0
3984,congruent,1,0.609934,left,-0.4944045243897791,-0.5434876871937782,0.10950188579947884,0,0
3984,congruent,1,0.55795380000000006,right,-0.5834791157275039,-0.5434876871937782,0.10950188579947884,0,0
3984,incongruent,1,0.6499598,right,-0.4308447641588527,-0.40139444217752884,0.08992826839078161,0,0
3984,congruent,1,0.4690991,left,-0.7569412322170348,-0.5434876871937782,0.10950188579947884,0,0
3984,incongruent,1,0.662054,right,-0.4124081553748828,-0.40139444217752884,0.08992826839078161,0,0
3984,incongruent,1,0.598053,left,-0.5140759001962604,-0.40139444217752884,0.08992826839078161,0,0
3984,incongruent,1,0.6869574,left,-0.3754829974160331,-0.40139444217752884,0.08992826839078161,0,0
3984,incongruent,1,0.5990662,left,-0.5123831694440846,-0.40139444217752884,0.08992826839078161,0,0
3984,congruent,1,0.4530433,left,-0.7917675730780945,-0.5434876871937782,0.10950188579947884,0,0
3984,congruent,1,0.6280549,left,-0.46512769595271175,-0.5434876871937782,0.10950188579947884,0,0
3984,incongruent,1,0.6479244,right,-0.433981256102614,-0.40139444217752884,0.08992826839078161,0,0
3984,incongruent,1,0.7419301,right,-0.2985002451040643,-0.40139444217752884,0.08992826839078161,0,0
3984,incongruent,1,0.6699748,left,-0.4005151792447706,-0.40139444217752884,0.08992826839078161,0,0
3984,congruent,1,0.6210203,right,-0.47639150837198885,-0.5434876871937782,0.10950188579947884,0,0
3984,congruent,1,0.6020764,right,-0.5073709314267435,-0.5434876871937782,0.10950188579947884,0,0
3984,congruent,1,0.5780713,right,-0.5480580615161508,-0.5434876871937782,0.10950188579947884,0,0
3984,congruent,1,0.6350175,right,-0.45410272141407104,-0.5434876871937782,0.10950188579947884,0,0
3984,incongruent,1,0.6440992,left,-0.4399025274732244,-0.40139444217752884,0.08992826839078161,0,0
3984,incongruent,1,0.5470632,left,-0.6031909439290057,-0.40139444217752884,0.08992826839078161,0,0
3984,incongruent,1,0.6709414,right,-0.3990734781639374,-0.40139444217752884,0.08992826839078161,0,0
3984,congruent,1,0.5300385,left,-0.6348056335648024,-0.5434876871937782,0.10950188579947884,0,0
3984,incongruent,1,0.63199,right,-0.45888170774527126,-0.40139444217752884,0.08992826839078161,0,0
3984,congruent,1,0.5159379,left,-0.6617688695802861,-0.5434876871937782,0.10950188579947884,0,0
3986,incongruent,1,1.8505973,right,0.6155084518454538,0.5750264659862491,0.1905403986999205,0,0
3986,congruent,1,1.7599901,right,0.56530818403424,0.44996363825861696,0.20013822966795833,0,0
3986,congruent,1,1.6228412,right,0.48417844024577483,0.44996363825861696,0.20013822966795833,0,0
3986,incongruent,1,1.727008,left,0.5463904314641773,0.5750264659862491,0.1905403986999205,0,0
3986,incongruent,1,1.7419826,left,0.5550238898614818,0.5750264659862491,0.1905403986999205,0,0
3986,congruent,1,1.2180171,left,0.19722420859802067,0.44996363825861696,0.20013822966795833,0,0
3986,congruent,1,1.3439156,left,0.2955874425100572,0.44996363825861696,0.20013822966795833,0,0
3986,incongruent,1,1.9487933,right,0.6672103605143945,0.5750264659862491,0.1905403986999205,0,0
3986,congruent,1,1.6580881,left,0.5056651916102254,0.44996363825861696,0.20013822966795833,0,0
3986,incongruent,1,1.5459728,right,0.4356533562200307,0.5750264659862491,0.1905403986999205,0,0
3986,incongruent,1,1.9940121,left,0.6901487397258489,0.5750264659862491,0.1905403986999205,0,0
3986,incongruent,1,2.0720223,right,0.7285250868875833,0.5750264659862491,0.1905403986999205,0,0
3986,incongruent,1,2.9741246,left,1.089949743596109,0.5750264659862491,0.1905403986999205,0,0
3986,congruent,1,1.6938446,right,0.5270008564847108,0.44996363825861696,0.20013822966795833,0,0
3986,congruent,1,1.5370667,right,0.4298758598412849,0.44996363825861696,0.20013822966795833,0,0
3986,congruent,1,1.5609825,left,0.4453154307081221,0.44996363825861696,0.20013822966795833,0,0
3986,incongruent,1,1.7250607,left,0.5452622382700227,0.5750264659862491,0.1905403986999205,0,0
3986,incongruent,1,1.4679423,right,0.38386162424274345,0.5750264659862491,0.1905403986999205,0,0
3986,congruent,1,1.6199527,left,0.4823969512871723,0.44996363825861696,0.20013822966795833,0,0
3986,incongruent,1,1.6039083,right,0.47244333823402046,0.5750264659862491,0.1905403986999205,0,0
3986,congruent,1,1.86775,right,0.6247344978737736,0.44996363825861696,0.20013822966795833,0,0
3986,congruent,1,1.2900308,left,0.2546660940575466,0.44996363825861696,0.20013822966795833,0,0
3986,incongruent,1,1.9998206,left,0.6930574765366597,0.5750264659862491,0.1905403986999205,0,0
3986,congruent,1,1.8346504,right,0.6068539456445573,0.44996363825861696,0.20013822966795833,0,0
3986,incongruent,1,1.9909016,right,0.6885876014599285,0.5750264659862491,0.1905403986999205,0,0
3986,congruent,1,1.8318836,right,0.6053447271154665,0.44996363825861696,0.20013822966795833,0,0
3986,incongruent,1,1.7999972,left,0.5877851093453536,0.5750264659862491,0.1905403986999205,0,0
3986,incongruent,1,1.5298399,right,0.42516308940626685,0.5750264659862491,0.1905403986999205,0,0
3986,incongruent,1,1.3959535,left,0.33357769432982115,0.5750264659862491,0.1905403986999205,0,0
3986,congruent,1,1.1879192,right,0.17220320515941898,0.44996363825861696,0.20013822966795833,0,0
3986,congruent,1,1.4188942,left,0.3498778358492261,0.44996363825861696,0.20013822966795833,0,0
3986,congruent,1,1.2900277,left,0.2546636910112591,0.44996363825861696,0.20013822966795833,0,0
3986,incongruent,1,1.5389815,left,0.4311208339917693,0.5750264659862491,0.1905403986999205,0,0
3986,congruent,1,1.1239637,right,0.11686145557632706,0.44996363825861696,0.20013822966795833,0,0
3986,congruent,1,1.2289256,right,0.20614029172948917,0.44996363825861696,0.20013822966795833,0,0
3986,congruent,1,1.266039,left,0.23589312893470274,0.44996363825861696,0.20013822966795833,0,0
3986,incongruent,1,2.3400094,right,0.8501549464555587,0.5750264659862491,0.1905403986999205,0,0
3986,congruent,1,1.7209345,left,0.5428674572372626,0.44996363825861696,0.20013822966795833,0,0
3986,incongruent,1,1.4409145,right,0.3652779814610908,0.5750264659862491,0.1905403986999205,0,0
3986,incongruent,1,1.9295768,left,0.6573007042612027,0.5750264659862491,0.1905403986999205,0,0
3986,congruent,1,1.7863196,right,0.5801574138135578,0.44996363825861696,0.20013822966795833,0,0
3986,incongruent,1,1.6029757,right,0.4718617144357848,0.5750264659862491,0.1905403986999205,0,0
3986,incongruent,1,1.2100857,left,0.19069118354685644,0.5750264659862491,0.1905403986999205,0,0
3986,congruent,1,2.0229466,left,0.7045551613962869,0.44996363825861696,0.20013822966795833,0,0
3986,congruent,1,2.1209192,left,0.751849579618808,0.44996363825861696,0.20013822966795833,0,0
3986,congruent,1,2.3629392,right,0.8599062678695166,0.44996363825861696,0.20013822966795833,0,0
3986,incongruent,1,1.8220328,left,0.5999528008711186,0.5750264659862491,0.1905403986999205,0,0
3986,incongruent,1,2.1730393,right,0.7761267867067005,0.5750264659862491,0.1905403986999205,0,0
3988,incongruent,1,0.6442169,right,-0.439719808340354,-0.5680490650828611,0.07267668579831936,0,0
3988,incongruent,1,0.5543046,left,-0.5900409238356258,-0.5680490650828611,0.07267668579831936,0,0
3988,congruent,1,0.6852412,right,-0.3779843859101582,-0.6905020467317672,0.12406938147122615,0,0
3988,incongruent,1,0.5701984,left,-0.5617709085404733,-0.5680490650828611,0.07267668579831936,0,0
3988,congruent,1,0.5253966,right,-0.6436018730116286,-0.6905020467317672,0.12406938147122615,0,0
3988,congruent,1,0.4659305,left,-0.7637187976101114,-0.6905020467317672,0.12406938147122615,0,0
3988,incongruent,1,0.5442854,right,-0.6082815373446919,-0.5680490650828611,0.07267668579831936,0,0
3988,congruent,1,0.4720768,left,-0.7506135947683145,-0.6905020467317672,0.12406938147122615,0,0
3988,congruent,1,0.4902615,right,-0.7128163567611185,-0.6905020467317672,0.12406938147122615,0,0
3988,incongruent,1,0.511092,left,-0.6712056658445902,-0.5680490650828611,0.07267668579831936,0,0
3988,congruent,1,0.5032686,left,-0.6866312553836815,-0.6905020467317672,0.12406938147122615,0,0
3988,congruent,1,0.46722,left,-0.7609550401651873,-0.6905020467317672,0.12406938147122615,0,0
3988,incongruent,1,0.6022469,left,-0.5070877848644555,-0.5680490650828611,0.07267668579831936,0,0
3988,incongruent,1,0.5981491,right,-0.5139152250056603,-0.5680490650828611,0.07267668579831936,0,0
3988,congruent,1,0.5671585,right,-0.567116472872607,-0.6905020467317672,0.12406938147122615,0,0
3988,incongruent,1,0.5462344,right,-0.6047070913325374,-0.5680490650828611,0.07267668579831936,0,0
3988,incongruent,1,0.5700844,right,-0.5619708589394089,-0.5680490650828611,0.07267668579831936,0,0
3988,congruent,1,0.4452162,right,-0.8091952721026179,-0.6905020467317672,0.12406938147122615,0,0
3988,congruent,1,0.5283048,left,-0.6380818891064072,-0.6905020467317672,0.12406938147122615,0,0
3988,incongruent,1,0.491153,left,-0.7109995907663019,-0.5680490650828611,0.07267668579831936,0,0
3988,congruent,1,0.4692187,right,-0.7566863079245452,-0.6905020467317672,0.12406938147122615,0,0
3988,incongruent,1,0.589083,left,-0.5291881884502416,-0.5680490650828611,0.07267668579831936,0,0
3988,incongruent,1,0.5853312,right,-0.5355774381087512,-0.5680490650828611,0.07267668579831936,0,0
3988,congruent,1,0.4702156,left,-0.7545639660551934,-0.6905020467317672,0.12406938147122615,0,0
3988,incongruent,1,0.5833242,left,-0.5390121579981185,-0.5680490650828611,0.07267668579831936,0,0
3988,incongruent,1,0.5903541,right,-0.5270327526205272,-0.5680490650828611,0.07267668579831936,0,0
3988,incongruent,1,0.5082296,right,-0.6768219650067175,-0.5680490650828611,0.07267668579831936,0,0
3988,congruent,1,0.4832392,right,-0.7272435098242394,-0.6905020467317672,0.12406938147122615,0,0
3988,congruent,1,0.4342728,left,-0.8340823709214369,-0.6905020467317672,0.12406938147122615,0,0
3988,congruent,1,0.5662588,right,-0.5687040614667989,-0.6905020467317672,0.12406938147122615,0,0
3988,congruent,1,0.5033524,left,-0.6864647577640338,-0.6905020467317672,0.12406938147122615,0,0
3988,incongruent,1,0.6019896,left,-0.5075151095700517,-0.5680490650828611,0.07267668579831936,0,0
3988,incongruent,1,0.6572376,right,-0.41970968203928033,-0.5680490650828611,0.07267668579831936,0,0
3988,incongruent,1,0.5432513,left,-0.6101832668433992,-0.5680490650828611,0.07267668579831936,0,0
3988,congruent,1,0.4401493,left,-0.8206412914434069,-0.6905020467317672,0.12406938147122615,0,0
3988,incongruent,1,0.5750905,right,-0.5532278592651507,-0.5680490650828611,0.07267668579831936,0,0
3988,congruent,1,0.4682553,left,-0.7587416189820063,-0.6905020467317672,0.12406938147122615,0,0
3988,congruent,1,0.5001058,right,-0.6929356029440676,-0.6905020467317672,0.12406938147122615,0,0
3988,congruent,1,0.7052827,right,-0.3491565636382368,-0.6905020467317672,0.12406938147122615,0,0
3988,incongruent,1,0.4979804,left,-0.697194560161727,-0.5680490650828611,0.07267668579831936,0,0
3988,incongruent,1,0.5692106,right,-0.5635047903115885,-0.5680490650828611,0.07267668579831936,0,0
3988,incongruent,1,0.5572564,left,-0.5847298218112716,-0.5680490650828611,0.07267668579831936,0,0
3988,congruent,1,0.4741371,left,-0.7462587586027025,-0.6905020467317672,0.12406938147122615,0,0
3988,incongruent,1,0.589967,right,-0.5276886758500258,-0.5680490650828611,0.07267668579831936,0,0
3988,incongruent,1,0.5531689,left,-0.5920918991377169,-0.5680490650828611,0.07267668579831936,0,0
3988,congruent,1,0.4353078,right,-0.8317019119076481,-0.6905020467317672,0.12406938147122615,0,0
3988,congruent,1,0.5094742,right,-0.6743760654817731,-0.6905020467317672,0.12406938147122615,0,0
3988,congruent,1,0.5169664,left,-0.6597773969144909,-0.6905020467317672,0.12406938147122615,0,0
3991,incongruent,1,0.5612495,right,-0.5775897307946668,-0.6704061468229087,0.1467909130402121,0,0
3991,congruent,1,0.5509316,right,-0.5961446154660078,-0.7659766817383086,0.1673082664830361,0,0
3991,incongruent,1,0.5078862,left,-0.6774978722469623,-0.6704061468229087,0.1467909130402121,0,0
3991,incongruent,1,0.5523163,left,-0.5936343895646309,-0.6704061468229087,0.1467909130402121,0,0
3991,congruent,1,0.7119218,right,-0.3397872050627519,-0.7659766817383086,0.1673082664830361,0,0
3991,incongruent,1,0.4888051,right,-0.7157914374639613,-0.6704061468229087,0.1467909130402121,0,0
3991,congruent,1,0.3408277,left,-1.0763782079872402,-0.7659766817383086,0.1673082664830361,0,0
3991,congruent,1,0.5050491,left,-0.6830996267103135,-0.7659766817383086,0.1673082664830361,0,0
3991,congruent,1,0.4998642,left,-0.6934188174499051,-0.7659766817383086,0.1673082664830361,0,0
3991,incongruent,1,0.5188441,left,-0.656151826297421,-0.6704061468229087,0.1467909130402121,0,0
3991,incongruent,0,0.4168103,left,-0.8751240767561881,-0.6704061468229087,0.1467909130402121,0,0
3991,congruent,1,0.5150987,right,-0.6633967461955722,-0.7659766817383086,0.1673082664830361,0,0
3991,incongruent,1,0.6240007,left,-0.4716037888184669,-0.6704061468229087,0.1467909130402121,0,0
3991,congruent,1,0.3802146,left,-0.9670194488234394,-0.7659766817383086,0.1673082664830361,0,0
3991,congruent,1,0.5606541,right,-0.5786511411616496,-0.7659766817383086,0.1673082664830361,0,0
3991,incongruent,1,0.5659951,right,-0.5691698580602446,-0.6704061468229087,0.1467909130402121,0,0
3991,congruent,1,0.4758577,right,-0.7426364190248824,-0.7659766817383086,0.1673082664830361,0,0
3991,congruent,1,0.6114658,left,-0.4918962534647306,-0.7659766817383086,0.1673082664830361,0,0
3991,incongruent,1,0.6010651,right,-0.5090520308455053,-0.6704061468229087,0.1467909130402121,0,0
3991,congruent,1,0.5376054,left,-0.6206304451807871,-0.7659766817383086,0.1673082664830361,0,0
3991,congruent,1,0.4639185,right,-0.768046388735268,-0.7659766817383086,0.1673082664830361,0,0
3991,incongruent,1,0.4988061,left,-0.6955378359005926,-0.6704061468229087,0.1467909130402121,0,0
3991,incongruent,1,0.5418908,left,-0.6126907738562698,-0.6704061468229087,0.1467909130402121,0,0
3991,incongruent,1,0.6160693,right,-0.4843958217762676,-0.6704061468229087,0.1467909130402121,0,0
3991,incongruent,1,0.4618968,left,-0.7724137894760487,-0.6704061468229087,0.1467909130402121,0,0
3991,congruent,1,0.3914686,right,-0.9378499711100928,-0.7659766817383086,0.1673082664830361,0,0
3991,congruent,1,0.4407017,left,-0.8193870496422032,-0.7659766817383086,0.1673082664830361,0,0
3991,incongruent,1,0.5998663,left,-0.5110484819303601,-0.6704061468229087,0.1467909130402121,0,0
3991,incongruent,1,0.5331438,right,-0.6289640975830338,-0.6704061468229087,0.1467909130402121,0,0
3991,congruent,1,0.4116944,left,-0.8874739524362667,-0.7659766817383086,0.1673082664830361,0,0
3991,incongruent,1,0.5500964,right,-0.5976617433868175,-0.6704061468229087,0.1467909130402121,0,0
3991,congruent,1,0.4098596,right,-0.8919406169538053,-0.7659766817383086,0.1673082664830361,0,0
3991,congruent,1,0.4048911,left,-0.9041371369215857,-0.7659766817383086,0.1673082664830361,0,0
3991,incongruent,1,0.5402838,right,-0.6156607219242138,-0.6704061468229087,0.1467909130402121,0,0
3991,incongruent,1,0.5382685,right,-0.6193977726827109,-0.6704061468229087,0.1467909130402121,0,0
3991,incongruent,0,0.3681977,right,-0.9991352568077756,-0.6704061468229087,0.1467909130402121,0,0
3991,incongruent,0,0.4011376,right,-0.9134507683907308,-0.6704061468229087,0.1467909130402121,0,0
3991,congruent,1,0.411085,right,-0.8889552732166228,-0.7659766817383086,0.1673082664830361,0,0
3991,congruent,1,0.4060438,right,-0.9012942434258254,-0.7659766817383086,0.1673082664830361,0,0
3991,congruent,1,0.432143,left,-0.8389987269940508,-0.7659766817383086,0.1673082664830361,0,0
3991,congruent,1,0.4835526,right,-0.72659517993361,-0.7659766817383086,0.1673082664830361,0,0
3991,incongruent,1,0.487057,left,-0.719374119627409,-0.6704061468229087,0.1467909130402121,0,0
3991,congruent,1,0.4509121,right,-0.7964828586967047,-0.7659766817383086,0.1673082664830361,0,0
3991,incongruent,0,0.3753985,left,-0.9797671505755912,-0.6704061468229087,0.1467909130402121,0,0
3991,congruent,1,0.4150261,left,-0.8794138691627653,-0.7659766817383086,0.1673082664830361,0,0
3991,incongruent,1,0.557143,right,-0.5849333395094889,-0.6704061468229087,0.1467909130402121,0,0
3991,incongruent,1,0.4917913,left,-0.709700839474451,-0.6704061468229087,0.1467909130402121,0,0
3991,congruent,1,0.5016733,left,-0.6898061679633263,-0.7659766817383086,0.1673082664830361,0,0
3992,congruent,1,1.0891399,right,0.08538830218272332,-0.04913387713158576,0.09839079383548133,0,0
3992,incongruent,1,1.2458114,right,0.21978704454254855,0.0737693734399548,0.15432761121644323,0,0
3992,congruent,1,1.1628725,left,0.15089323726013842,-0.04913387713158576,0.09839079383548133,0,0
3992,congruent,1,0.9539531,right,-0.047140770167889534,-0.04913387713158576,0.09839079383548133,0,0
3992,congruent,1,1.1417932,left,0.13260000902144192,-0.04913387713158576,0.09839079383548133,0,0
3992,incongruent,1,1.2858802,right,0.25144346439983245,0.0737693734399548,0.15432761121644323,0,0
3992,incongruent,1,1.2298671,left,0.20690611476614842,0.0737693734399548,0.15432761121644323,0,0
3992,incongruent,1,1.1599245,left,0.14835491679317767,0.0737693734399548,0.15432761121644323,0,0
3992,incongruent,1,1.5269112,left,0.4232468713038798,0.0737693734399548,0.15432761121644323,0,0
3992,congruent,1,1.0039522,left,0.003944410574413379,-0.04913387713158576,0.09839079383548133,0,0
3992,incongruent,1,0.9639453,right,-0.036720728720110736,0.0737693734399548,0.15432761121644323,0,0
3992,incongruent,1,0.9389353,right,-0.06300870523619287,0.0737693734399548,0.15432761121644323,0,0
3992,congruent,1,0.9456556,right,-0.05587683541251381,-0.04913387713158576,0.09839079383548133,0,0
3992,congruent,1,0.9487639,left,-0.05259529952323014,-0.04913387713158576,0.09839079383548133,0,0
3992,congruent,1,0.9297425,right,-0.0728476128940861,-0.04913387713158576,0.09839079383548133,0,0
3992,incongruent,1,1.0079581,left,0.007926601324908562,0.0737693734399548,0.15432761121644323,0,0
3992,incongruent,1,1.2238023,right,0.2019626514365946,0.0737693734399548,0.15432761121644323,0,0
3992,congruent,1,1.0469191,right,0.04585166051717991,-0.04913387713158576,0.09839079383548133,0,0
3992,incongruent,1,1.1007754,right,0.0960148405635148,0.0737693734399548,0.15432761121644323,0,0
3992,congruent,1,1.008987,left,0.008946857244864447,-0.04913387713158576,0.09839079383548133,0,0
3992,incongruent,1,1.1078404,left,0.10241253462855684,0.0737693734399548,0.15432761121644323,0,0
3992,incongruent,1,0.9580539,left,-0.04285123954596571,0.0737693734399548,0.15432761121644323,0,0
3992,congruent,1,0.9929259,left,-0.007099240077846463,-0.04913387713158576,0.09839079383548133,0,0
3992,congruent,1,1.0619907,right,0.06014516571925686,-0.04913387713158576,0.09839079383548133,0,0
3992,congruent,1,0.8778089,left,-0.13032636279557938,-0.04913387713158576,0.09839079383548133,0,0
3992,congruent,1,0.9369495,left,-0.06512589360701053,-0.04913387713158576,0.09839079383548133,0,0
3992,congruent,1,0.838824,right,-0.17575436806040587,-0.04913387713158576,0.09839079383548133,0,0
3992,incongruent,1,1.1269396,left,0.1195056400100928,0.0737693734399548,0.15432761121644323,0,0
3992,incongruent,1,1.1358469,right,0.1273785400897547,0.0737693734399548,0.15432761121644323,0,0
3992,congruent,1,0.7939756,right,-0.23070254868578158,-0.04913387713158576,0.09839079383548133,0,0
3992,incongruent,1,0.8027837,right,-0.21966996620230492,0.0737693734399548,0.15432761121644323,0,0
3992,incongruent,1,0.9999007,left,-9.93049305714309e-5,0.0737693734399548,0.15432761121644323,0,0
3992,incongruent,1,1.2210196,left,0.19968624741578136,0.0737693734399548,0.15432761121644323,0,0
3992,incongruent,1,0.970811,left,-0.02962347433273903,0.0737693734399548,0.15432761121644323,0,0
3992,congruent,1,0.9788284,right,-0.021398932713995098,-0.04913387713158576,0.09839079383548133,0,0
3992,incongruent,1,1.3780051,right,0.32063687360058324,0.0737693734399548,0.15432761121644323,0,0
3992,congruent,1,0.9409887,left,-0.06082414797045409,-0.04913387713158576,0.09839079383548133,0,0
3992,congruent,1,0.9449135,right,-0.05666189006945681,-0.04913387713158576,0.09839079383548133,0,0
3992,incongruent,1,0.9369468,right,-0.06512877530329225,0.0737693734399548,0.15432761121644323,0,0
3992,congruent,1,0.8608211,left,-0.14986857779324886,-0.04913387713158576,0.09839079383548133,0,0
3992,congruent,1,0.8469142,right,-0.16615588816244137,-0.04913387713158576,0.09839079383548133,0,0
3992,incongruent,1,0.9128503,right,-0.0911833767816026,0.0737693734399548,0.15432761121644323,0,0
3992,incongruent,1,0.9008138,right,-0.1044567019982486,0.0737693734399548,0.15432761121644323,0,0
3992,congruent,1,0.9298388,left,-0.07274404119212716,-0.04913387713158576,0.09839079383548133,0,0
3992,incongruent,1,0.9327651,left,-0.0696018783225458,0.0737693734399548,0.15432761121644323,0,0
3992,congruent,1,0.8639017,left,-0.14629628979888515,-0.04913387713158576,0.09839079383548133,0,0
3992,incongruent,1,1.0698803,left,0.06754677305711514,0.0737693734399548,0.15432761121644323,0,0
3992,congruent,1,0.8559323,right,-0.15556399475312457,-0.04913387713158576,0.09839079383548133,0,0
3993,congruent,1,0.508675,right,-0.6759459732401705,-0.6967817543016873,0.1382825206521211,0,0
3993,incongruent,1,0.523012,right,-0.6481508706297671,-0.5375191146361973,0.12022082513097927,0,0
3993,incongruent,1,0.7029492,left,-0.3524706515178967,-0.5375191146361973,0.12022082513097927,0,0
3993,congruent,1,0.6388821,left,-0.4480353486703741,-0.6967817543016873,0.1382825206521211,0,0
3993,incongruent,1,0.694028,left,-0.3652429734678777,-0.5375191146361973,0.12022082513097927,0,0
3993,congruent,1,0.6119507,right,-0.4911035552701396,-0.6967817543016873,0.1382825206521211,0,0
3993,incongruent,1,0.6269483,right,-0.46689119788926164,-0.5375191146361973,0.12022082513097927,0,0
3993,congruent,1,0.5179525,left,-0.6578717397689486,-0.6967817543016873,0.1382825206521211,0,0
3993,incongruent,1,0.6598746,left,-0.41570546201395253,-0.5375191146361973,0.12022082513097927,0,0
3993,incongruent,1,0.7070767,right,-0.3466161324068639,-0.5375191146361973,0.12022082513097927,0,0
3993,congruent,1,0.396714,left,-0.9245396609325666,-0.6967817543016873,0.1382825206521211,0,0
3993,incongruent,1,0.5757684,left,-0.5520497824767576,-0.5375191146361973,0.12022082513097927,0,0
3993,congruent,1,0.4839763,left,-0.7257193404065739,-0.6967817543016873,0.1382825206521211,0,0
3993,incongruent,1,0.5398921,right,-0.6163859742042715,-0.5375191146361973,0.12022082513097927,0,0
3993,congruent,1,0.4469029,right,-0.8054139339163254,-0.6967817543016873,0.1382825206521211,0,0
3993,congruent,1,0.4949276,right,-0.7033437897371303,-0.6967817543016873,0.1382825206521211,0,0
3993,incongruent,1,0.5202607,right,-0.6534252468848125,-0.5375191146361973,0.12022082513097927,0,0
3993,incongruent,1,0.586854,left,-0.5329792124074313,-0.5375191146361973,0.12022082513097927,0,0
3993,congruent,1,0.43491610000000003,left,-0.832602140059169,-0.6967817543016873,0.1382825206521211,0,0
3993,incongruent,1,0.6219381,right,-0.4749147088800583,-0.5375191146361973,0.12022082513097927,0,0
3993,congruent,1,0.4509976,left,-0.7962932610013785,-0.6967817543016873,0.1382825206521211,0,0
3993,congruent,1,0.4588548,right,-0.779021458836884,-0.6967817543016873,0.1382825206521211,0,0
3993,congruent,1,0.5338846,right,-0.6275755682448778,-0.6967817543016873,0.1382825206521211,0,0
3993,incongruent,1,0.6468878,left,-0.43558241528455843,-0.5375191146361973,0.12022082513097927,0,0
3993,incongruent,1,0.504968,left,-0.6832602180511421,-0.5375191146361973,0.12022082513097927,0,0
3993,incongruent,1,0.4468389,right,-0.805557152013788,-0.5375191146361973,0.12022082513097927,0,0
3993,congruent,1,0.3979334,left,-0.9214706243834614,-0.6967817543016873,0.1382825206521211,0,0
3993,incongruent,1,0.6068379,right,-0.4994935746579658,-0.5375191146361973,0.12022082513097927,0,0
3993,congruent,1,0.4380528,right,-0.825415827925805,-0.6967817543016873,0.1382825206521211,0,0
3993,incongruent,1,0.5628043,left,-0.5748233134015098,-0.5375191146361973,0.12022082513097927,0,0
3993,congruent,1,0.4587994,right,-0.7791422014871487,-0.6967817543016873,0.1382825206521211,0,0
3993,congruent,1,0.5349515,left,-0.6255791904010788,-0.6967817543016873,0.1382825206521211,0,0
3993,incongruent,1,0.6130745,right,-0.48926881698842806,-0.5375191146361973,0.12022082513097927,0,0
3993,congruent,1,0.5468214,left,-0.6036330381022635,-0.6967817543016873,0.1382825206521211,0,0
3993,congruent,1,0.5498666,left,-0.5980795756290718,-0.6967817543016873,0.1382825206521211,0,0
3993,congruent,1,0.4668282,right,-0.7617939690833718,-0.6967817543016873,0.1382825206521211,0,0
3993,congruent,1,0.5949923,right,-0.5192068146967156,-0.6967817543016873,0.1382825206521211,0,0
3993,incongruent,1,0.5668853,right,-0.5675982884872864,-0.5375191146361973,0.12022082513097927,0,0
3993,incongruent,1,0.4968776,left,-0.6994115608828287,-0.5375191146361973,0.12022082513097927,0,0
3993,incongruent,1,0.6288192,left,-0.463911503982159,-0.5375191146361973,0.12022082513097927,0,0
3993,congruent,1,0.5719315,left,-0.5587360500183262,-0.6967817543016873,0.1382825206521211,0,0
3993,congruent,1,0.4578934,left,-0.7811188730503942,-0.6967817543016873,0.1382825206521211,0,0
3993,incongruent,1,0.6559079,right,-0.42173489623600036,-0.5375191146361973,0.12022082513097927,0,0
3993,incongruent,1,0.5618829,left,-0.5764618137883534,-0.5375191146361973,0.12022082513097927,0,0
3993,incongruent,1,0.5119172,left,-0.6695923857705164,-0.5375191146361973,0.12022082513097927,0,0
3993,congruent,1,0.4408801,right,-0.8189823225880938,-0.6967817543016873,0.1382825206521211,0,0
3993,congruent,1,0.6299355,right,-0.4621378457902271,-0.6967817543016873,0.1382825206521211,0,0
3993,incongruent,1,0.5549204,right,-0.5889305989452487,-0.5375191146361973,0.12022082513097927,0,0
3996,congruent,1,0.5021351,left,-0.6888860719916666,-0.6635314764381269,0.17970170551184583,0,0
3996,congruent,1,0.4790244,right,-0.7360037434113894,-0.6635314764381269,0.17970170551184583,0,0
3996,incongruent,1,0.6427554,right,-0.4419910314711964,-0.5393461953209543,0.11838020935402131,0,0
3996,incongruent,1,0.6841314,right,-0.379605274546282,-0.5393461953209543,0.11838020935402131,0,0
3996,congruent,1,0.6068646,right,-0.4994495770555809,-0.6635314764381269,0.17970170551184583,0,0
3996,incongruent,1,0.5499129,left,-0.5979953769328287,-0.5393461953209543,0.11838020935402131,0,0
3996,congruent,1,0.8559531,left,-0.1555396940610326,-0.6635314764381269,0.17970170551184583,0,0
3996,incongruent,1,0.6798933,left,-0.38581940488862937,-0.5393461953209543,0.11838020935402131,0,0
3996,incongruent,1,0.5268753,right,-0.6407913808311614,-0.5393461953209543,0.11838020935402131,0,0
3996,incongruent,1,0.6650756,right,-0.4078545605773168,-0.5393461953209543,0.11838020935402131,0,0
3996,incongruent,1,0.6266843,left,-0.467312373924254,-0.5393461953209543,0.11838020935402131,0,0
3996,congruent,1,0.6548263,right,-0.42338526935588844,-0.6635314764381269,0.17970170551184583,0,0
3996,congruent,1,0.6030172,left,-0.50580955861532,-0.6635314764381269,0.17970170551184583,0,0
3996,congruent,1,0.4559262,right,-0.7854243246708609,-0.6635314764381269,0.17970170551184583,0,0
3996,congruent,1,0.6168282,left,-0.4831647379337795,-0.6635314764381269,0.17970170551184583,0,0
3996,incongruent,1,0.6590098,left,-0.41701687357351036,-0.5393461953209543,0.11838020935402131,0,0
3996,congruent,1,0.5180289,right,-0.6577242467731507,-0.6635314764381269,0.17970170551184583,0,0
3996,incongruent,1,0.5170163,right,-0.6596808769242847,-0.5393461953209543,0.11838020935402131,0,0
3996,congruent,1,0.5539068,left,-0.5907588374342144,-0.6635314764381269,0.17970170551184583,0,0
3996,congruent,1,0.5209952,left,-0.652014450323034,-0.6635314764381269,0.17970170551184583,0,0
3996,incongruent,1,0.618076,left,-0.481143851739262,-0.5393461953209543,0.11838020935402131,0,0
3996,congruent,1,0.488785,right,-0.715832558993328,-0.6635314764381269,0.17970170551184583,0,0
3996,incongruent,1,0.596072,left,-0.5173938138440407,-0.5393461953209543,0.11838020935402131,0,0
3996,incongruent,1,0.5259424,right,-0.6425635779440365,-0.5393461953209543,0.11838020935402131,0,0
3996,incongruent,1,0.5839377,right,-0.5379609799266131,-0.5393461953209543,0.11838020935402131,0,0
3996,congruent,1,0.5041459,left,-0.6848895686762295,-0.6635314764381269,0.17970170551184583,0,0
3996,incongruent,1,0.5654863,left,-0.5700692100677889,-0.5393461953209543,0.11838020935402131,0,0
3996,congruent,1,0.5038432,right,-0.685490170426981,-0.6635314764381269,0.17970170551184583,0,0
3996,congruent,1,0.6389986,left,-0.44785301553032003,-0.6635314764381269,0.17970170551184583,0,0
3996,incongruent,1,0.5869446,right,-0.5328248418021504,-0.5393461953209543,0.11838020935402131,0,0
3996,congruent,1,0.5250307,right,-0.6442985419097029,-0.6635314764381269,0.17970170551184583,0,0
3996,incongruent,1,0.5757564,left,-0.5520706244073881,-0.5393461953209543,0.11838020935402131,0,0
3996,congruent,1,0.3840012,right,-0.957109601399293,-0.6635314764381269,0.17970170551184583,0,0
3996,congruent,1,0.425938,right,-0.8534614832108298,-0.6635314764381269,0.17970170551184583,0,0
3996,incongruent,1,0.585873,left,-0.5346522364425547,-0.5393461953209543,0.11838020935402131,0,0
3996,incongruent,1,0.5119862,right,-0.6694576074308713,-0.5393461953209543,0.11838020935402131,0,0
3996,congruent,1,0.4000295,left,-0.9162169845935526,-0.6635314764381269,0.17970170551184583,0,0
3996,incongruent,1,0.6489994,right,-0.432323486777704,-0.5393461953209543,0.11838020935402131,0,0
3996,incongruent,1,0.4021624,left,-0.9108992918416041,-0.5393461953209543,0.11838020935402131,0,0
3996,congruent,1,0.4158586,left,-0.8774099803474334,-0.6635314764381269,0.17970170551184583,0,0
3996,incongruent,1,0.557995,right,-0.583405277214449,-0.5393461953209543,0.11838020935402131,0,0
3996,congruent,1,0.4960007,right,-0.7011779409678828,-0.6635314764381269,0.17970170551184583,0,0
3996,congruent,1,0.5050023,right,-0.6831922952617031,-0.6635314764381269,0.17970170551184583,0,0
3996,incongruent,1,0.5378424,left,-0.6201896985376928,-0.5393461953209543,0.11838020935402131,0,0
3996,congruent,1,0.4480723,left,-0.8028006756595658,-0.6635314764381269,0.17970170551184583,0,0
3996,congruent,1,0.4598467,left,-0.7768621059123059,-0.6635314764381269,0.17970170551184583,0,0
3996,incongruent,1,0.6291875,right,-0.46332597449249496,-0.5393461953209543,0.11838020935402131,0,0
3996,incongruent,1,0.6077686,left,-0.49796106156479003,-0.5393461953209543,0.11838020935402131,0,0
3998,incongruent,1,0.5944152,left,-0.5201772139001621,-0.5161181796333455,0.10080979589377596,0,0
3998,congruent,1,0.4694199,right,-0.756257601917608,-0.7012892876008852,0.10373640738240165,0,0
3998,congruent,1,0.4232905,left,-0.8596965744191251,-0.7012892876008852,0.10373640738240165,0,0
3998,congruent,1,0.4774666,right,-0.7392610691517817,-0.7012892876008852,0.10373640738240165,0,0
3998,incongruent,1,0.5654382,right,-0.5701542732175022,-0.5161181796333455,0.10080979589377596,0,0
3998,incongruent,1,0.5205004,right,-0.6529646224355741,-0.5161181796333455,0.10080979589377596,0,0
3998,incongruent,1,0.6442524,left,-0.43966470419466896,-0.5161181796333455,0.10080979589377596,0,0
3998,congruent,1,0.4874748,left,-0.7185166821880209,-0.7012892876008852,0.10373640738240165,0,0
3998,congruent,1,0.4744318,left,-0.7456374015046959,-0.7012892876008852,0.10373640738240165,0,0
3998,incongruent,1,0.5353342,right,-0.624864054215834,-0.5161181796333455,0.10080979589377596,0,0
3998,congruent,1,0.6134088,left,-0.4887236811381825,-0.7012892876008852,0.10373640738240165,0,0
3998,incongruent,1,0.576292,left,-0.5511408022947257,-0.5161181796333455,0.10080979589377596,0,0
3998,incongruent,1,0.5984613,left,-0.5133934177288995,-0.5161181796333455,0.10080979589377596,0,0
3998,congruent,1,0.5474251,right,-0.6025296303029225,-0.7012892876008852,0.10373640738240165,0,0
3998,incongruent,1,0.6005447,right,-0.5099182022641071,-0.5161181796333455,0.10080979589377596,0,0
3998,congruent,1,0.451376,right,-0.7954545839341862,-0.7012892876008852,0.10373640738240165,0,0
3998,congruent,1,0.4863951,right,-0.7207340223940809,-0.7012892876008852,0.10373640738240165,0,0
3998,incongruent,1,0.6994224,left,-0.3575004274136277,-0.5161181796333455,0.10080979589377596,0,0
3998,congruent,1,0.4673768,left,-0.7606194943951372,-0.7012892876008852,0.10373640738240165,0,0
3998,incongruent,1,0.550378,right,-0.5971499640920945,-0.5161181796333455,0.10080979589377596,0,0
3998,congruent,1,0.5233968,right,-0.6474154027756258,-0.7012892876008852,0.10373640738240165,0,0
3998,congruent,1,0.4814136,left,-0.731028503097442,-0.7012892876008852,0.10373640738240165,0,0
3998,incongruent,1,0.5612984,left,-0.5775026075636118,-0.5161181796333455,0.10080979589377596,0,0
3998,incongruent,1,0.5456022,right,-0.6058651402029497,-0.5161181796333455,0.10080979589377596,0,0
3998,congruent,1,0.4823723,left,-0.7290390564450205,-0.7012892876008852,0.10373640738240165,0,0
3998,congruent,0,0.4553142,left,-0.7867675489002011,-0.7012892876008852,0.10373640738240165,0,0
3998,congruent,1,0.4805971,right,-0.7327259898219856,-0.7012892876008852,0.10373640738240165,0,0
3998,incongruent,1,0.5952099,left,-0.5188411625370668,-0.5161181796333455,0.10080979589377596,0,0
3998,incongruent,1,0.548278,left,-0.6009728213968214,-0.5161181796333455,0.10080979589377596,0,0
3998,congruent,1,0.4704028,left,-0.7541659300344828,-0.7012892876008852,0.10373640738240165,0,0
3998,incongruent,1,0.6253061,right,-0.46951398913902004,-0.5161181796333455,0.10080979589377596,0,0
3998,incongruent,1,0.6013649,right,-0.5085533739487008,-0.5161181796333455,0.10080979589377596,0,0
3998,congruent,1,0.4764082,right,-0.7414802292225918,-0.7012892876008852,0.10373640738240165,0,0
3998,congruent,1,0.4983687,left,-0.6964151144440386,-0.7012892876008852,0.10373640738240165,0,0
3998,incongruent,1,0.5833237,right,-0.5390130151547636,-0.5161181796333455,0.10080979589377596,0,0
3998,incongruent,1,0.5463519,left,-0.604492005347196,-0.5161181796333455,0.10080979589377596,0,0
3998,congruent,1,0.4682815,right,-0.7586856681640419,-0.7012892876008852,0.10373640738240165,0,0
3998,incongruent,1,0.556319,left,-0.5864134082508047,-0.5161181796333455,0.10080979589377596,0,0
3998,incongruent,1,0.6325447,right,-0.4580043889408466,-0.5161181796333455,0.10080979589377596,0,0
3998,congruent,1,0.5222619,left,-0.6495860927830394,-0.7012892876008852,0.10373640738240165,0,0
3998,congruent,1,0.5064059,right,-0.6804167573511631,-0.7012892876008852,0.10373640738240165,0,0
3998,congruent,1,0.7042907,right,-0.3505640819182662,-0.7012892876008852,0.10373640738240165,0,0
3998,incongruent,1,0.8394071,left,-0.175059469695736,-0.5161181796333455,0.10080979589377596,0,0
3998,incongruent,1,0.6162984,right,-0.4840240171555539,-0.5161181796333455,0.10080979589377596,0,0
3998,incongruent,1,0.6332192,right,-0.4569386292618987,-0.5161181796333455,0.10080979589377596,0,0
3998,incongruent,1,0.6283144,left,-0.46471460084812694,-0.5161181796333455,0.10080979589377596,0,0
3998,congruent,1,0.5123407,left,-0.6687654455552962,-0.7012892876008852,0.10373640738240165,0,0
3998,congruent,1,0.4884802,left,-0.716456340562309,-0.7012892876008852,0.10373640738240165,0,0
3999,incongruent,1,0.4904274,right,-0.7124780231640266,-0.5764611219239928,0.09185512737652982,0,0
3999,congruent,1,0.5454148,right,-0.6062086728918867,-0.6934655700496907,0.1267581624922193,0,0
3999,congruent,1,0.4687392,right,-0.7577087419629414,-0.6934655700496907,0.1267581624922193,0,0
3999,incongruent,1,0.5464208,right,-0.6043659041001731,-0.5764611219239928,0.09185512737652982,0,0
3999,congruent,1,0.5754899,left,-0.5525336009307615,-0.6934655700496907,0.1267581624922193,0,0
3999,congruent,1,0.589212,left,-0.5289692280022803,-0.6934655700496907,0.1267581624922193,0,0
3999,incongruent,1,0.6370029,left,-0.4509810708300698,-0.5764611219239928,0.09185512737652982,0,0
3999,incongruent,1,0.605477,left,-0.5017387018466947,-0.5764611219239928,0.09185512737652982,0,0
3999,congruent,1,0.5086013,right,-0.6760908699612066,-0.6934655700496907,0.1267581624922193,0,0
3999,incongruent,1,0.5711557,right,-0.5600934269867951,-0.5764611219239928,0.09185512737652982,0,0
3999,congruent,1,0.4660318,right,-0.7635014068414099,-0.6934655700496907,0.1267581624922193,0,0
3999,congruent,1,0.5378399,left,-0.6201943467502739,-0.6934655700496907,0.1267581624922193,0,0
3999,congruent,1,0.5424233,left,-0.6117085860514477,-0.6934655700496907,0.1267581624922193,0,0
3999,incongruent,1,0.5822307,right,-0.5408885180405777,-0.5764611219239928,0.09185512737652982,0,0
3999,incongruent,1,0.5731129,left,-0.5566725485170676,-0.5764611219239928,0.09185512737652982,0,0
3999,incongruent,1,0.6097809,left,-0.4946555666633532,-0.5764611219239928,0.09185512737652982,0,0
3999,incongruent,1,0.5939377,left,-0.520980847274892,-0.5764611219239928,0.09185512737652982,0,0
