subject_id,block_name,trial_location,trial_similarity,trial_corr_resp,resp_corr,resp_rt,resp_value,mean_rt,sd_rt,exclude_thresh,exclude_trial,exclude_part
1903,nb1TestingBlock,11,0,left,1,0.663306317128,left,0.7730410647516001,0.17765735506845437,3,0,0
1903,nb1TestingBlock,7,4,right,1,0.606543141696,right,0.7730410647516001,0.17765735506845437,3,0,0
1903,nb1TestingBlock,8,1,right,1,1.03752562253,right,0.7730410647516001,0.17765735506845437,3,0,0
1903,nb1TestingBlock,12,4,right,1,0.682756301895,right,0.7730410647516001,0.17765735506845437,3,0,0
1903,nb1TestingBlock,12,0,left,1,0.682442912318,left,0.7730410647516001,0.17765735506845437,3,0,0
1903,nb1TestingBlock,0,3,right,1,0.720330900934,right,0.7730410647516001,0.17765735506845437,3,0,0
1903,nb1TestingBlock,0,0,left,1,0.704553553561,left,0.7730410647516001,0.17765735506845437,3,0,0
1903,nb1TestingBlock,1,1,right,1,0.751189107624,right,0.7730410647516001,0.17765735506845437,3,0,0
1903,nb1TestingBlock,3,2,right,1,1.0777524649,right,0.7730410647516001,0.17765735506845437,3,0,0
1903,nb1TestingBlock,2,1,right,0,0.914879424637,left,0.7730410647516001,0.17765735506845437,3,0,0
1903,nb1TestingBlock,6,4,right,1,1.04157114244,right,0.7730410647516001,0.17765735506845437,3,0,0
1903,nb1TestingBlock,6,0,left,1,0.687534065718,left,0.7730410647516001,0.17765735506845437,3,0,0
1903,nb1TestingBlock,6,0,left,1,0.622083719186,left,0.7730410647516001,0.17765735506845437,3,0,0
1903,nb1TestingBlock,10,4,right,1,0.597408571671,right,0.7730410647516001,0.17765735506845437,3,0,0
1903,nb1TestingBlock,8,2,right,1,0.548585900894,right,0.7730410647516001,0.17765735506845437,3,0,0
1903,nb1TestingBlock,8,0,left,1,0.578758436429,left,0.7730410647516001,0.17765735506845437,3,0,0
1903,nb1TestingBlock,6,2,right,1,0.505879585088,right,0.7730410647516001,0.17765735506845437,3,0,0
1903,nb1TestingBlock,9,3,right,1,0.872966348029,right,0.7730410647516001,0.17765735506845437,3,0,0
1903,nb1TestingBlock,9,0,left,1,0.600013040372,left,0.7730410647516001,0.17765735506845437,3,0,0
1903,nb1TestingBlock,5,4,right,1,1.15124517521,right,0.7730410647516001,0.17765735506845437,3,0,0
1903,nb1TestingBlock,4,1,right,0,0.792281602319,left,0.7730410647516001,0.17765735506845437,3,0,0
1903,nb1TestingBlock,4,0,left,1,0.983029188198,left,0.7730410647516001,0.17765735506845437,3,0,0
1903,nb1TestingBlock,2,2,right,1,0.684844564178,right,0.7730410647516001,0.17765735506845437,3,0,0
1903,nb1TestingBlock,14,3,right,1,0.692918176776,right,0.7730410647516001,0.17765735506845437,3,0,0
1903,nb1TestingBlock,11,3,right,1,0.852345734507,right,0.7730410647516001,0.17765735506845437,3,0,0
1903,nb1TestingBlock,13,2,right,1,0.915045884681,right,0.7730410647516001,0.17765735506845437,3,0,0
1903,nb1TestingBlock,13,0,left,1,0.625851304909,left,0.7730410647516001,0.17765735506845437,3,0,0
1903,nb1TestingBlock,14,1,right,1,1.04845669906,right,0.7730410647516001,0.17765735506845437,3,0,0
1903,nb1TestingBlock,2,3,right,1,0.845820741162,right,0.7730410647516001,0.17765735506845437,3,0,0
1903,nb1TestingBlock,2,0,left,1,0.703312314498,left,0.7730410647516001,0.17765735506845437,3,0,0
1903,nb2TestingBlock,3,0,left,1,0.939571999377,left,1.050939995126511,0.3304014655865784,9,0,0
1903,nb2TestingBlock,9,3,right,1,0.943842270395,right,1.050939995126511,0.3304014655865784,9,0,0
1903,nb2TestingBlock,2,1,right,1,1.14765727019,right,1.050939995126511,0.3304014655865784,9,0,0
1903,nb2TestingBlock,9,0,left,1,0.889737648154,left,1.050939995126511,0.3304014655865784,9,0,0
1903,nb2TestingBlock,4,2,right,1,0.97322246814,right,1.050939995126511,0.3304014655865784,9,0,0
1903,nb2TestingBlock,10,1,right,1,1.09756992373,right,1.050939995126511,0.3304014655865784,9,0,0
1903,nb2TestingBlock,6,2,right,1,0.912645134229,right,1.050939995126511,0.3304014655865784,9,0,0
1903,nb2TestingBlock,6,4,right,1,1.3009158908,right,1.050939995126511,0.3304014655865784,9,0,0
1903,nb2TestingBlock,7,1,right,1,1.22867944303,right,1.050939995126511,0.3304014655865784,9,0,0
1903,nb2TestingBlock,6,0,left,1,0.775712217627,left,1.050939995126511,0.3304014655865784,9,0,0
1903,nb2TestingBlock,5,2,right,1,1.02813204789,right,1.050939995126511,0.3304014655865784,9,0,0
1903,nb2TestingBlock,10,4,right,0,0.97560428902,left,1.050939995126511,0.3304014655865784,9,0,0
1903,nb2TestingBlock,2,3,right,1,0.826604822053,right,1.050939995126511,0.3304014655865784,9,0,0
1903,nb2TestingBlock,13,3,right,1,1.06306522049,right,1.050939995126511,0.3304014655865784,9,0,0
1903,nb2TestingBlock,3,1,right,1,1.59254938064,right,1.050939995126511,0.3304014655865784,9,0,0
1903,nb2TestingBlock,1,3,right,0,0.749025427523,left,1.050939995126511,0.3304014655865784,9,0,0
1903,nb2TestingBlock,3,0,left,1,0.960946190138,left,1.050939995126511,0.3304014655865784,9,0,0
1903,nb2TestingBlock,1,0,left,0,0.77330365497,right,1.050939995126511,0.3304014655865784,9,0,0
1903,nb2TestingBlock,4,1,right,0,0.73622993841,left,1.050939995126511,0.3304014655865784,9,0,0
1903,nb2TestingBlock,1,0,left,0,0.708401965551,right,1.050939995126511,0.3304014655865784,9,0,0
1903,nb2TestingBlock,4,0,left,1,0.57644512257,left,1.050939995126511,0.3304014655865784,9,0,0
1903,nb2TestingBlock,5,4,right,0,1.03613054313,left,1.050939995126511,0.3304014655865784,9,0,0
1903,nb2TestingBlock,0,4,right,1,1.24664721227,right,1.050939995126511,0.3304014655865784,9,0,0
1903,nb2TestingBlock,5,0,left,1,0.864846463145,left,1.050939995126511,0.3304014655865784,9,0,0
1903,nb2TestingBlock,3,3,right,1,0.884421443179,right,1.050939995126511,0.3304014655865784,9,0,0
1903,nb2TestingBlock,1,4,right,0,0.928196228147,left,1.050939995126511,0.3304014655865784,9,0,0
1903,nb2TestingBlock,1,2,right,1,1.05987934351,right,1.050939995126511,0.3304014655865784,9,0,0
1903,nb2TestingBlock,12,4,right,0,0.790204457403,left,1.050939995126511,0.3304014655865784,9,0,0
1903,nb2TestingBlock,14,2,right,1,1.0258415697,right,1.050939995126511,0.3304014655865784,9,0,0
1903,nb2TestingBlock,11,1,right,1,0.964870019945,right,1.050939995126511,0.3304014655865784,9,0,0
1903,nb2TestingBlock,14,0,left,1,0.609252173746,left,1.050939995126511,0.3304014655865784,9,0,0
1903,nb2TestingBlock,14,3,right,1,0.812319605688,right,1.050939995126511,0.3304014655865784,9,0,0
1903,nb2TestingBlock,12,2,right,0,1.04021963111,left,1.050939995126511,0.3304014655865784,9,0,0
1903,nb2TestingBlock,0,1,right,1,0.818761068541,right,1.050939995126511,0.3304014655865784,9,0,0
1903,nb2TestingBlock,8,4,right,1,1.11065927191,right,1.050939995126511,0.3304014655865784,9,0,0
1903,nb2TestingBlock,0,0,left,1,1.10307362161,left,1.050939995126511,0.3304014655865784,9,0,0
1903,nb2TestingBlock,11,3,right,1,1.05407367389,right,1.050939995126511,0.3304014655865784,9,0,0
1903,nb2TestingBlock,13,2,right,1,1.47213657175,right,1.050939995126511,0.3304014655865784,9,0,0
1903,nb2TestingBlock,11,0,left,1,0.737750914479,left,1.050939995126511,0.3304014655865784,9,0,0
1903,nb2TestingBlock,11,2,right,1,1.07741353542,right,1.050939995126511,0.3304014655865784,9,0,0
1903,nb2TestingBlock,11,0,left,0,0.863226933115,right,1.050939995126511,0.3304014655865784,9,0,0
1903,nb2TestingBlock,8,3,right,1,0.930421504474,right,1.050939995126511,0.3304014655865784,9,0,0
1903,nb2TestingBlock,9,2,right,1,2.29400599617,right,1.050939995126511,0.3304014655865784,9,1,0
1903,nb2TestingBlock,9,1,right,0,0.903356423405,left,1.050939995126511,0.3304014655865784,9,0,0
1903,nb2TestingBlock,7,2,right,0,1.02687398254,left,1.050939995126511,0.3304014655865784,9,0,0
1903,nb2TestingBlock,9,0,left,1,1.2949128128,left,1.050939995126511,0.3304014655865784,9,0,0
1903,nb2TestingBlock,7,0,left,0,2.32666581734,right,1.050939995126511,0.3304014655865784,9,1,0
1903,nb2TestingBlock,8,1,right,0,1.02270527017,left,1.050939995126511,0.3304014655865784,9,0,0
1903,nb2TestingBlock,3,4,right,1,0.906243934274,right,1.050939995126511,0.3304014655865784,9,0,0
1903,nb2TestingBlock,8,0,left,0,1.13363917111,right,1.050939995126511,0.3304014655865784,9,0,0
1903,nb2TestingBlock,6,3,right,1,0.94841571503,right,1.050939995126511,0.3304014655865784,9,0,0
1903,nb2TestingBlock,10,2,right,1,1.29600561998,right,1.050939995126511,0.3304014655865784,9,0,0
1903,nb2TestingBlock,6,0,left,1,0.888936596751,left,1.050939995126511,0.3304014655865784,9,0,0
1903,nb2TestingBlock,10,0,left,0,1.06813774478,right,1.050939995126511,0.3304014655865784,9,0,0
1903,nb2TestingBlock,5,1,right,0,1.95716928986,left,1.050939995126511,0.3304014655865784,9,0,0
1903,nb2TestingBlock,10,0,left,0,0.603516513497,right,1.050939995126511,0.3304014655865784,9,0,0
1903,nb2TestingBlock,5,0,left,0,0.839217625775,right,1.050939995126511,0.3304014655865784,9,0,0
1903,nb2TestingBlock,7,3,right,0,0.579208239111,left,1.050939995126511,0.3304014655865784,9,0,0
1903,nb2TestingBlock,3,2,right,1,1.0235973638,right,1.050939995126511,0.3304014655865784,9,0,0
1903,nb2TestingBlock,10,3,right,0,0.826087714227,left,1.050939995126511,0.3304014655865784,9,0,0
1903,nb2TestingBlock,7,4,right,1,0.758006157219,right,1.050939995126511,0.3304014655865784,9,0,0
1903,nb2TestingBlock,14,4,right,1,0.666457339656,right,1.050939995126511,0.3304014655865784,9,0,0
1903,nb2TestingBlock,6,1,right,0,1.09435099512,left,1.050939995126511,0.3304014655865784,9,0,0
1903,nb2TestingBlock,14,0,left,0,1.76609569469,right,1.050939995126511,0.3304014655865784,9,0,0
1903,nb2TestingBlock,2,4,right,0,1.35605893527,left,1.050939995126511,0.3304014655865784,9,0,0
1903,nb2TestingBlock,13,1,right,1,0.777927878932,right,1.050939995126511,0.3304014655865784,9,0,0
1903,nb2TestingBlock,1,1,right,1,0.973110993995,right,1.050939995126511,0.3304014655865784,9,0,0
1903,nb2TestingBlock,0,2,right,1,1.01596844591,right,1.050939995126511,0.3304014655865784,9,0,0
1903,nb2TestingBlock,4,3,right,1,1.43639934305,right,1.050939995126511,0.3304014655865784,9,0,0
1903,nb2TestingBlock,4,4,right,1,1.27115289505,right,1.050939995126511,0.3304014655865784,9,0,0
1903,nb2TestingBlock,8,4,right,1,1.12887432747,right,1.050939995126511,0.3304014655865784,9,0,0
1903,nb2TestingBlock,4,0,left,1,0.807508790232,left,1.050939995126511,0.3304014655865784,9,0,0
1903,nb2TestingBlock,8,0,left,0,1.21110258446,right,1.050939995126511,0.3304014655865784,9,0,0
1903,nb2TestingBlock,2,2,right,0,1.88776176142,left,1.050939995126511,0.3304014655865784,9,0,0
1903,nb2TestingBlock,5,3,right,0,1.12849273134,left,1.050939995126511,0.3304014655865784,9,0,0
1903,nb2TestingBlock,2,0,left,0,0.695562307437,right,1.050939995126511,0.3304014655865784,9,0,0
1903,nb2TestingBlock,2,3,right,1,0.802915815086,right,1.050939995126511,0.3304014655865784,9,0,0
1903,nb2TestingBlock,13,4,right,1,0.974961885458,right,1.050939995126511,0.3304014655865784,9,0,0
1903,nb2TestingBlock,2,0,left,1,0.778716911559,left,1.050939995126511,0.3304014655865784,9,0,0
1903,nb2TestingBlock,13,0,left,0,1.7185818686,right,1.050939995126511,0.3304014655865784,9,0,0
1903,nb2TestingBlock,14,3,right,0,1.1017503544,left,1.050939995126511,0.3304014655865784,9,0,0
1903,nb2TestingBlock,13,0,left,1,1.09452015939,left,1.050939995126511,0.3304014655865784,9,0,0
1903,nb2TestingBlock,12,2,right,1,0.838107992306,right,1.050939995126511,0.3304014655865784,9,0,0
1903,nb2TestingBlock,12,1,right,0,1.09802002689,left,1.050939995126511,0.3304014655865784,9,0,0
1903,nb2TestingBlock,1,4,right,0,1.21030934526,left,1.050939995126511,0.3304014655865784,9,0,0
1903,nb2TestingBlock,12,0,left,0,1.1500688375400001,right,1.050939995126511,0.3304014655865784,9,0,0
1903,nb2TestingBlock,0,1,right,0,0.859701826193,left,1.050939995126511,0.3304014655865784,9,0,0
1903,nb2TestingBlock,12,0,left,1,1.3680080021,left,1.050939995126511,0.3304014655865784,9,0,0
1903,nb2TestingBlock,0,0,left,1,1.22894776219,left,1.050939995126511,0.3304014655865784,9,0,0
1903,nb2TestingBlock,12,0,left,0,0.816253651454,right,1.050939995126511,0.3304014655865784,9,0,0
1912,nb1TestingBlock,11,0,left,1,0.724068439717,left,0.6194428436103666,0.1581871997590239,3,0,0
1912,nb1TestingBlock,7,4,right,1,0.547055610274,right,0.6194428436103666,0.1581871997590239,3,0,0
1912,nb1TestingBlock,8,1,right,1,0.682255419416,right,0.6194428436103666,0.1581871997590239,3,0,0
1912,nb1TestingBlock,12,4,right,1,0.544986878502,right,0.6194428436103666,0.1581871997590239,3,0,0
1912,nb1TestingBlock,12,0,left,1,0.408346619088,left,0.6194428436103666,0.1581871997590239,3,0,0
1912,nb1TestingBlock,0,3,right,1,0.447536241116,right,0.6194428436103666,0.1581871997590239,3,0,0
1912,nb1TestingBlock,0,0,left,1,0.430546199272,left,0.6194428436103666,0.1581871997590239,3,0,0
1912,nb1TestingBlock,1,1,right,1,0.565177820792,right,0.6194428436103666,0.1581871997590239,3,0,0
1912,nb1TestingBlock,3,2,right,1,0.620554029505,right,0.6194428436103666,0.1581871997590239,3,0,0
1912,nb1TestingBlock,2,1,right,1,0.667060381728,right,0.6194428436103666,0.1581871997590239,3,0,0
1912,nb1TestingBlock,6,4,right,1,0.730347348628,right,0.6194428436103666,0.1581871997590239,3,0,0
1912,nb1TestingBlock,6,0,left,1,0.297163328552,left,0.6194428436103666,0.1581871997590239,3,0,0
1912,nb1TestingBlock,6,0,left,1,0.688378084243,left,0.6194428436103666,0.1581871997590239,3,0,0
1912,nb1TestingBlock,10,4,right,1,0.718815934252,right,0.6194428436103666,0.1581871997590239,3,0,0
1912,nb1TestingBlock,8,2,right,1,0.734497131419,right,0.6194428436103666,0.1581871997590239,3,0,0
1912,nb1TestingBlock,8,0,left,0,0.829150098284,right,0.6194428436103666,0.1581871997590239,3,0,0
1912,nb1TestingBlock,6,2,right,1,0.500365370782,right,0.6194428436103666,0.1581871997590239,3,0,0
1912,nb1TestingBlock,9,3,right,1,0.585870246499,right,0.6194428436103666,0.1581871997590239,3,0,0
1912,nb1TestingBlock,9,0,left,1,0.658004534684,left,0.6194428436103666,0.1581871997590239,3,0,0
1912,nb1TestingBlock,5,4,right,1,0.433211362791,right,0.6194428436103666,0.1581871997590239,3,0,0
1912,nb1TestingBlock,4,1,right,0,0.711985964474,left,0.6194428436103666,0.1581871997590239,3,0,0
1912,nb1TestingBlock,4,0,left,0,0.463732442822,right,0.6194428436103666,0.1581871997590239,3,0,0
1912,nb1TestingBlock,2,2,right,1,0.742529880179,right,0.6194428436103666,0.1581871997590239,3,0,0
1912,nb1TestingBlock,14,3,right,1,0.637391132427,right,0.6194428436103666,0.1581871997590239,3,0,0
1912,nb1TestingBlock,11,3,right,1,0.548712098039,right,0.6194428436103666,0.1581871997590239,3,0,0
1912,nb1TestingBlock,13,2,right,1,0.627210628444,right,0.6194428436103666,0.1581871997590239,3,0,0
1912,nb1TestingBlock,13,0,left,1,0.610216380029,left,0.6194428436103666,0.1581871997590239,3,0,0
1912,nb1TestingBlock,14,1,right,1,0.880287885735,right,0.6194428436103666,0.1581871997590239,3,0,0
1912,nb1TestingBlock,2,3,right,1,1.07082574398,right,0.6194428436103666,0.1581871997590239,3,0,0
1912,nb1TestingBlock,2,0,left,1,0.477002072638,left,0.6194428436103666,0.1581871997590239,3,0,0
1912,nb2TestingBlock,3,0,left,1,0.716747502949,left,2.0413143446028554,1.1366371322942161,9,0,0
1912,nb2TestingBlock,9,3,right,1,0.778908911502,right,2.0413143446028554,1.1366371322942161,9,0,0
1912,nb2TestingBlock,2,1,right,0,1.17500539343,left,2.0413143446028554,1.1366371322942161,9,0,0
1912,nb2TestingBlock,9,0,left,0,0.852233959892,right,2.0413143446028554,1.1366371322942161,9,0,0
1912,nb2TestingBlock,4,2,right,0,1.04766676502,left,2.0413143446028554,1.1366371322942161,9,0,0
1912,nb2TestingBlock,10,1,right,0,2.57812444601,left,2.0413143446028554,1.1366371322942161,9,0,0
1912,nb2TestingBlock,6,2,right,0,3.4717895296,left,2.0413143446028554,1.1366371322942161,9,0,0
1912,nb2TestingBlock,6,4,right,1,2.40109208606,right,2.0413143446028554,1.1366371322942161,9,0,0
1912,nb2TestingBlock,7,1,right,0,3.08556076302,left,2.0413143446028554,1.1366371322942161,9,0,0
1912,nb2TestingBlock,6,0,left,1,2.08670465,left,2.0413143446028554,1.1366371322942161,9,0,0
1912,nb2TestingBlock,5,2,right,0,4.11996030198,left,2.0413143446028554,1.1366371322942161,9,0,0
1912,nb2TestingBlock,10,4,right,1,2.41575889855,right,2.0413143446028554,1.1366371322942161,9,0,0
1912,nb2TestingBlock,2,3,right,1,1.86787910073,right,2.0413143446028554,1.1366371322942161,9,0,0
1912,nb2TestingBlock,13,3,right,1,1.45348373229,right,2.0413143446028554,1.1366371322942161,9,0,0
1912,nb2TestingBlock,3,1,right,0,3.54264862568,left,2.0413143446028554,1.1366371322942161,9,0,0
1912,nb2TestingBlock,1,3,right,0,3.23847414431,left,2.0413143446028554,1.1366371322942161,9,0,0
1912,nb2TestingBlock,3,0,left,1,2.92136655884,left,2.0413143446028554,1.1366371322942161,9,0,0
1912,nb2TestingBlock,1,0,left,0,3.28123905165,right,2.0413143446028554,1.1366371322942161,9,0,0
1912,nb2TestingBlock,4,1,right,0,2.08274386246,left,2.0413143446028554,1.1366371322942161,9,0,0
1912,nb2TestingBlock,1,0,left,1,3.55568418984,left,2.0413143446028554,1.1366371322942161,9,0,0
1912,nb2TestingBlock,4,0,left,1,1.71377315643,left,2.0413143446028554,1.1366371322942161,9,0,0
1912,nb2TestingBlock,5,4,right,1,0.985280905831,right,2.0413143446028554,1.1366371322942161,9,0,0
1912,nb2TestingBlock,0,4,right,0,1.46920338954,left,2.0413143446028554,1.1366371322942161,9,0,0
1912,nb2TestingBlock,5,0,left,1,2.59879794215,left,2.0413143446028554,1.1366371322942161,9,0,0
1912,nb2TestingBlock,3,3,right,1,0.858856906259,right,2.0413143446028554,1.1366371322942161,9,0,0
1912,nb2TestingBlock,1,4,right,0,2.55105425696,left,2.0413143446028554,1.1366371322942161,9,0,0
1912,nb2TestingBlock,1,2,right,1,1.74910505191,right,2.0413143446028554,1.1366371322942161,9,0,0
1912,nb2TestingBlock,12,4,right,0,1.6832559825,left,2.0413143446028554,1.1366371322942161,9,0,0
1912,nb2TestingBlock,14,2,right,1,1.81997887099,right,2.0413143446028554,1.1366371322942161,9,0,0
1912,nb2TestingBlock,11,1,right,0,0.871307456508,left,2.0413143446028554,1.1366371322942161,9,0,0
1912,nb2TestingBlock,14,0,left,1,1.88332533083,left,2.0413143446028554,1.1366371322942161,9,0,0
1912,nb2TestingBlock,14,3,right,1,3.75621686198,right,2.0413143446028554,1.1366371322942161,9,0,0
1912,nb2TestingBlock,12,2,right,0,0.922543497452,left,2.0413143446028554,1.1366371322942161,9,0,0
1912,nb2TestingBlock,0,1,right,1,3.07047930277,right,2.0413143446028554,1.1366371322942161,9,0,0
1912,nb2TestingBlock,8,4,right,0,5.00843147164,left,2.0413143446028554,1.1366371322942161,9,0,0
1912,nb2TestingBlock,0,0,left,1,2.2860234258,left,2.0413143446028554,1.1366371322942161,9,0,0
1912,nb2TestingBlock,11,3,right,0,4.09462472274,left,2.0413143446028554,1.1366371322942161,9,0,0
1912,nb2TestingBlock,13,2,right,0,4.63980390166,left,2.0413143446028554,1.1366371322942161,9,0,0
1912,nb2TestingBlock,11,0,left,1,1.83609484737,left,2.0413143446028554,1.1366371322942161,9,0,0
1912,nb2TestingBlock,11,2,right,0,1.75848570637,left,2.0413143446028554,1.1366371322942161,9,0,0
1912,nb2TestingBlock,11,0,left,1,0.980198165574,left,2.0413143446028554,1.1366371322942161,9,0,0
1912,nb2TestingBlock,8,3,right,1,3.11225115876,right,2.0413143446028554,1.1366371322942161,9,0,0
1912,nb2TestingBlock,9,2,right,1,4.2175019816,right,2.0413143446028554,1.1366371322942161,9,0,0
1912,nb2TestingBlock,9,1,right,0,1.98162269097,left,2.0413143446028554,1.1366371322942161,9,0,0
1912,nb2TestingBlock,7,2,right,0,2.36182073635,left,2.0413143446028554,1.1366371322942161,9,0,0
1912,nb2TestingBlock,9,0,left,1,0.8560036489,left,2.0413143446028554,1.1366371322942161,9,0,0
1912,nb2TestingBlock,7,0,left,1,2.7077938155,left,2.0413143446028554,1.1366371322942161,9,0,0
1912,nb2TestingBlock,8,1,right,1,1.16451630738,right,2.0413143446028554,1.1366371322942161,9,0,0
1912,nb2TestingBlock,3,4,right,1,3.2896086266,right,2.0413143446028554,1.1366371322942161,9,0,0
1912,nb2TestingBlock,8,0,left,1,0.794868042856,left,2.0413143446028554,1.1366371322942161,9,0,0
1912,nb2TestingBlock,6,3,right,1,1.05467070658,right,2.0413143446028554,1.1366371322942161,9,0,0
1912,nb2TestingBlock,10,2,right,0,0.960538453172,left,2.0413143446028554,1.1366371322942161,9,0,0
1912,nb2TestingBlock,6,0,left,1,1.44424339703,left,2.0413143446028554,1.1366371322942161,9,0,0
1912,nb2TestingBlock,10,0,left,1,0.862805975495,left,2.0413143446028554,1.1366371322942161,9,0,0
1912,nb2TestingBlock,5,1,right,1,1.4269823318,right,2.0413143446028554,1.1366371322942161,9,0,0
1912,nb2TestingBlock,10,0,left,1,1.12592672273,left,2.0413143446028554,1.1366371322942161,9,0,0
1912,nb2TestingBlock,5,0,left,1,2.81376095737,left,2.0413143446028554,1.1366371322942161,9,0,0
1912,nb2TestingBlock,7,3,right,0,4.04138635376,left,2.0413143446028554,1.1366371322942161,9,0,0
1912,nb2TestingBlock,3,2,right,0,2.21310641484,left,2.0413143446028554,1.1366371322942161,9,0,0
1912,nb2TestingBlock,10,3,right,0,4.61570024693,left,2.0413143446028554,1.1366371322942161,9,0,0
1912,nb2TestingBlock,7,4,right,1,0.964219203239,right,2.0413143446028554,1.1366371322942161,9,0,0
1912,nb2TestingBlock,14,4,right,1,1.08853510955,right,2.0413143446028554,1.1366371322942161,9,0,0
1912,nb2TestingBlock,6,1,right,1,4.93660907069,right,2.0413143446028554,1.1366371322942161,9,0,0
1912,nb2TestingBlock,14,0,left,1,1.024508387,left,2.0413143446028554,1.1366371322942161,9,0,0
1912,nb2TestingBlock,2,4,right,1,1.13209145327,right,2.0413143446028554,1.1366371322942161,9,0,0
1912,nb2TestingBlock,13,1,right,0,1.76211387429,left,2.0413143446028554,1.1366371322942161,9,0,0
1912,nb2TestingBlock,1,1,right,0,3.27236348624,left,2.0413143446028554,1.1366371322942161,9,0,0
1912,nb2TestingBlock,0,2,right,1,1.60240988472,right,2.0413143446028554,1.1366371322942161,9,0,0
1912,nb2TestingBlock,4,3,right,1,1.10337739617,right,2.0413143446028554,1.1366371322942161,9,0,0
1912,nb2TestingBlock,4,4,right,1,2.35818385482,right,2.0413143446028554,1.1366371322942161,9,0,0
1912,nb2TestingBlock,8,4,right,0,0.924722801961,left,2.0413143446028554,1.1366371322942161,9,0,0
1912,nb2TestingBlock,4,0,left,0,1.22480699349,right,2.0413143446028554,1.1366371322942161,9,0,0
1912,nb2TestingBlock,8,0,left,1,0.795333469947,left,2.0413143446028554,1.1366371322942161,9,0,0
1912,nb2TestingBlock,2,2,right,0,2.64707856614,left,2.0413143446028554,1.1366371322942161,9,0,0
1912,nb2TestingBlock,5,3,right,1,1.16175499365,right,2.0413143446028554,1.1366371322942161,9,0,0
1912,nb2TestingBlock,2,0,left,1,0.768240745693,left,2.0413143446028554,1.1366371322942161,9,0,0
1912,nb2TestingBlock,2,3,right,0,2.77912945604,left,2.0413143446028554,1.1366371322942161,9,0,0
1912,nb2TestingBlock,13,4,right,1,1.80851476176,right,2.0413143446028554,1.1366371322942161,9,0,0
1912,nb2TestingBlock,2,0,left,0,2.72517056145,right,2.0413143446028554,1.1366371322942161,9,0,0
1912,nb2TestingBlock,13,0,left,1,0.748852357152,left,2.0413143446028554,1.1366371322942161,9,0,0
1912,nb2TestingBlock,14,3,right,1,0.832657477511,right,2.0413143446028554,1.1366371322942161,9,0,0
1912,nb2TestingBlock,13,0,left,1,0.916098428966,left,2.0413143446028554,1.1366371322942161,9,0,0
1912,nb2TestingBlock,12,2,right,1,2.2641498549,right,2.0413143446028554,1.1366371322942161,9,0,0
1912,nb2TestingBlock,12,1,right,0,1.70531043596,left,2.0413143446028554,1.1366371322942161,9,0,0
1912,nb2TestingBlock,1,4,right,0,1.80933203851,left,2.0413143446028554,1.1366371322942161,9,0,0
1912,nb2TestingBlock,12,0,left,1,0.925521149139,left,2.0413143446028554,1.1366371322942161,9,0,0
1912,nb2TestingBlock,0,1,right,0,1.02557445241,left,2.0413143446028554,1.1366371322942161,9,0,0
1912,nb2TestingBlock,12,0,left,0,3.00429070294,right,2.0413143446028554,1.1366371322942161,9,0,0
1912,nb2TestingBlock,0,0,left,1,1.36119485861,left,2.0413143446028554,1.1366371322942161,9,0,0
1912,nb2TestingBlock,12,0,left,1,0.791122992339,left,2.0413143446028554,1.1366371322942161,9,0,0
1917,nb1TestingBlock,11,0,left,1,0.489195574568,left,0.6319825034723,0.19419125115768995,3,0,0
1917,nb1TestingBlock,7,4,right,1,1.06371601805,right,0.6319825034723,0.19419125115768995,3,0,0
1917,nb1TestingBlock,8,1,right,0,0.300543218453,left,0.6319825034723,0.19419125115768995,3,0,0
1917,nb1TestingBlock,12,4,right,1,0.571256144973,right,0.6319825034723,0.19419125115768995,3,0,0
1917,nb1TestingBlock,12,0,left,1,0.52229377064,left,0.6319825034723,0.19419125115768995,3,0,0
1917,nb1TestingBlock,0,3,right,1,0.5611955313,right,0.6319825034723,0.19419125115768995,3,0,0
1917,nb1TestingBlock,0,0,left,1,0.63229558247,left,0.6319825034723,0.19419125115768995,3,0,0
1917,nb1TestingBlock,1,1,right,0,1.06321723901,left,0.6319825034723,0.19419125115768995,3,0,0
1917,nb1TestingBlock,3,2,right,1,0.603451731259,right,0.6319825034723,0.19419125115768995,3,0,0
1917,nb1TestingBlock,2,1,right,1,0.818612090224,right,0.6319825034723,0.19419125115768995,3,0,0
1917,nb1TestingBlock,6,4,right,1,0.89768900045,right,0.6319825034723,0.19419125115768995,3,0,0
1917,nb1TestingBlock,6,0,left,1,0.312382009461,left,0.6319825034723,0.19419125115768995,3,0,0
1917,nb1TestingBlock,6,0,left,1,0.575618959252,left,0.6319825034723,0.19419125115768995,3,0,0
1917,nb1TestingBlock,10,4,right,1,0.558937804958,right,0.6319825034723,0.19419125115768995,3,0,0
1917,nb1TestingBlock,8,2,right,1,0.589665899168,right,0.6319825034723,0.19419125115768995,3,0,0
1917,nb1TestingBlock,8,0,left,1,0.45273753074899997,left,0.6319825034723,0.19419125115768995,3,0,0
1917,nb1TestingBlock,6,2,right,1,0.715561936188,right,0.6319825034723,0.19419125115768995,3,0,0
1917,nb1TestingBlock,9,3,right,1,0.609190094008,right,0.6319825034723,0.19419125115768995,3,0,0
1917,nb1TestingBlock,9,0,left,1,0.345556825205,left,0.6319825034723,0.19419125115768995,3,0,0
1917,nb1TestingBlock,5,4,right,1,0.624728563543,right,0.6319825034723,0.19419125115768995,3,0,0
1917,nb1TestingBlock,4,1,right,0,0.887406940901,left,0.6319825034723,0.19419125115768995,3,0,0
1917,nb1TestingBlock,4,0,left,1,0.82235113023,left,0.6319825034723,0.19419125115768995,3,0,0
1917,nb1TestingBlock,2,2,right,1,0.501888599804,right,0.6319825034723,0.19419125115768995,3,0,0
1917,nb1TestingBlock,14,3,right,1,0.716857259353,right,0.6319825034723,0.19419125115768995,3,0,0
1917,nb1TestingBlock,11,3,right,1,0.715710968962,right,0.6319825034723,0.19419125115768995,3,0,0
1917,nb1TestingBlock,13,2,right,0,0.842662554644,left,0.6319825034723,0.19419125115768995,3,0,0
1917,nb1TestingBlock,13,0,left,1,0.49622986142,left,0.6319825034723,0.19419125115768995,3,0,0
1917,nb1TestingBlock,14,1,right,0,0.663178718841,left,0.6319825034723,0.19419125115768995,3,0,0
1917,nb1TestingBlock,2,3,right,1,0.50230865589,right,0.6319825034723,0.19419125115768995,3,0,0
1917,nb1TestingBlock,2,0,left,1,0.503034890195,left,0.6319825034723,0.19419125115768995,3,0,0
1917,nb2TestingBlock,3,0,left,1,0.9179589601,left,1.4386604404086,0.564800977308793,9,0,0
1917,nb2TestingBlock,9,3,right,1,3.88333858654,right,1.4386604404086,0.564800977308793,9,1,0
1917,nb2TestingBlock,2,1,right,1,1.82167357195,right,1.4386604404086,0.564800977308793,9,0,0
1917,nb2TestingBlock,9,0,left,1,1.09698097458,left,1.4386604404086,0.564800977308793,9,0,0
1917,nb2TestingBlock,4,2,right,0,1.4326505569,left,1.4386604404086,0.564800977308793,9,0,0
1917,nb2TestingBlock,10,1,right,0,0.827507784408,left,1.4386604404086,0.564800977308793,9,0,0
1917,nb2TestingBlock,6,2,right,1,0.614931761919,right,1.4386604404086,0.564800977308793,9,0,0
1917,nb2TestingBlock,6,4,right,0,1.8908112581,left,1.4386604404086,0.564800977308793,9,0,0
1917,nb2TestingBlock,7,1,right,1,1.07544724105,right,1.4386604404086,0.564800977308793,9,0,0
1917,nb2TestingBlock,6,0,left,1,0.572824895204,left,1.4386604404086,0.564800977308793,9,0,0
1917,nb2TestingBlock,5,2,right,1,1.1048241248,right,1.4386604404086,0.564800977308793,9,0,0
1917,nb2TestingBlock,10,4,right,0,2.95250842291,left,1.4386604404086,0.564800977308793,9,0,0
1917,nb2TestingBlock,2,3,right,1,3.02286180786,right,1.4386604404086,0.564800977308793,9,0,0
1917,nb2TestingBlock,13,3,right,1,2.13090996828,right,1.4386604404086,0.564800977308793,9,0,0
1917,nb2TestingBlock,3,1,right,0,1.26581888251,left,1.4386604404086,0.564800977308793,9,0,0
1917,nb2TestingBlock,1,3,right,0,3.04307828397,left,1.4386604404086,0.564800977308793,9,0,0
1917,nb2TestingBlock,3,0,left,1,1.14218688169,left,1.4386604404086,0.564800977308793,9,0,0
1917,nb2TestingBlock,1,0,left,1,1.25282749126,left,1.4386604404086,0.564800977308793,9,0,0
1917,nb2TestingBlock,4,1,right,1,1.33462725431,right,1.4386604404086,0.564800977308793,9,0,0
1917,nb2TestingBlock,1,0,left,1,1.20521452457,left,1.4386604404086,0.564800977308793,9,0,0
1917,nb2TestingBlock,4,0,left,1,1.09714352848,left,1.4386604404086,0.564800977308793,9,0,0
1917,nb2TestingBlock,5,4,right,1,1.38504600335,right,1.4386604404086,0.564800977308793,9,0,0
1917,nb2TestingBlock,0,4,right,0,1.68582869584,left,1.4386604404086,0.564800977308793,9,0,0
1917,nb2TestingBlock,5,0,left,1,1.12639181137,left,1.4386604404086,0.564800977308793,9,0,0
1917,nb2TestingBlock,3,3,right,0,2.31705761228,left,1.4386604404086,0.564800977308793,9,0,0
1917,nb2TestingBlock,1,4,right,0,1.30905881897,left,1.4386604404086,0.564800977308793,9,0,0
1917,nb2TestingBlock,1,2,right,0,1.29316008674,left,1.4386604404086,0.564800977308793,9,0,0
1917,nb2TestingBlock,12,4,right,1,1.40592291099,right,1.4386604404086,0.564800977308793,9,0,0
1917,nb2TestingBlock,14,2,right,1,1.75378073012,right,1.4386604404086,0.564800977308793,9,0,0
1917,nb2TestingBlock,11,1,right,0,0.911778607006,left,1.4386604404086,0.564800977308793,9,0,0
1917,nb2TestingBlock,14,0,left,1,1.21974431865,left,1.4386604404086,0.564800977308793,9,0,0
1917,nb2TestingBlock,14,3,right,0,1.40661308898,left,1.4386604404086,0.564800977308793,9,0,0
1917,nb2TestingBlock,12,2,right,0,1.17108932442,left,1.4386604404086,0.564800977308793,9,0,0
1917,nb2TestingBlock,0,1,right,1,1.02406518742,right,1.4386604404086,0.564800977308793,9,0,0
1917,nb2TestingBlock,8,4,right,1,2.11503046608,right,1.4386604404086,0.564800977308793,9,0,0
1917,nb2TestingBlock,0,0,left,1,2.12301874297,left,1.4386604404086,0.564800977308793,9,0,0
1917,nb2TestingBlock,11,3,right,1,1.36248105917,right,1.4386604404086,0.564800977308793,9,0,0
1917,nb2TestingBlock,13,2,right,1,1.59212824511,right,1.4386604404086,0.564800977308793,9,0,0
1917,nb2TestingBlock,11,0,left,1,1.28504290852,left,1.4386604404086,0.564800977308793,9,0,0
1917,nb2TestingBlock,11,2,right,0,1.39768013661,left,1.4386604404086,0.564800977308793,9,0,0
1917,nb2TestingBlock,11,0,left,1,1.13758008634,left,1.4386604404086,0.564800977308793,9,0,0
1917,nb2TestingBlock,8,3,right,1,1.24021108569,right,1.4386604404086,0.564800977308793,9,0,0
1917,nb2TestingBlock,9,2,right,1,1.69806530821,right,1.4386604404086,0.564800977308793,9,0,0
1917,nb2TestingBlock,9,1,right,0,0.6506560597,left,1.4386604404086,0.564800977308793,9,0,0
1917,nb2TestingBlock,7,2,right,0,0.182635758792,left,1.4386604404086,0.564800977308793,9,0,0
1917,nb2TestingBlock,9,0,left,1,1.83404359269,left,1.4386604404086,0.564800977308793,9,0,0
1917,nb2TestingBlock,7,0,left,0,1.6288194531,right,1.4386604404086,0.564800977308793,9,0,0
1917,nb2TestingBlock,8,1,right,0,1.26462511797,left,1.4386604404086,0.564800977308793,9,0,0
1917,nb2TestingBlock,3,4,right,1,2.32940389595,right,1.4386604404086,0.564800977308793,9,0,0
1917,nb2TestingBlock,8,0,left,1,1.28944057724,left,1.4386604404086,0.564800977308793,9,0,0
1917,nb2TestingBlock,6,3,right,0,1.61809029523,left,1.4386604404086,0.564800977308793,9,0,0
1917,nb2TestingBlock,10,2,right,1,1.59739937809,right,1.4386604404086,0.564800977308793,9,0,0
1917,nb2TestingBlock,6,0,left,1,1.30526569449,left,1.4386604404086,0.564800977308793,9,0,0
1917,nb2TestingBlock,10,0,left,1,1.34490901339,left,1.4386604404086,0.564800977308793,9,0,0
1917,nb2TestingBlock,5,1,right,0,1.32806500473,left,1.4386604404086,0.564800977308793,9,0,0
1917,nb2TestingBlock,10,0,left,1,1.85520834992,left,1.4386604404086,0.564800977308793,9,0,0
1917,nb2TestingBlock,5,0,left,1,2.26485858262,left,1.4386604404086,0.564800977308793,9,0,0
1917,nb2TestingBlock,7,3,right,1,1.22697991994,right,1.4386604404086,0.564800977308793,9,0,0
1917,nb2TestingBlock,3,2,right,1,1.52585763704,right,1.4386604404086,0.564800977308793,9,0,0
1917,nb2TestingBlock,10,3,right,0,1.30152725542,left,1.4386604404086,0.564800977308793,9,0,0
1917,nb2TestingBlock,7,4,right,1,1.36518107632,right,1.4386604404086,0.564800977308793,9,0,0
1917,nb2TestingBlock,14,4,right,1,2.18664341836,right,1.4386604404086,0.564800977308793,9,0,0
1917,nb2TestingBlock,6,1,right,0,1.47948080106,left,1.4386604404086,0.564800977308793,9,0,0
1917,nb2TestingBlock,14,0,left,1,1.5846892261,left,1.4386604404086,0.564800977308793,9,0,0
1917,nb2TestingBlock,2,4,right,1,1.2210759986,right,1.4386604404086,0.564800977308793,9,0,0
1917,nb2TestingBlock,13,1,right,1,2.24854970979,right,1.4386604404086,0.564800977308793,9,0,0
1917,nb2TestingBlock,1,1,right,1,1.18675729622,right,1.4386604404086,0.564800977308793,9,0,0
1917,nb2TestingBlock,0,2,right,1,1.20756569686,right,1.4386604404086,0.564800977308793,9,0,0
1917,nb2TestingBlock,4,3,right,0,1.28299160459,left,1.4386604404086,0.564800977308793,9,0,0
1917,nb2TestingBlock,4,4,right,0,1.38824389814,left,1.4386604404086,0.564800977308793,9,0,0
1917,nb2TestingBlock,8,4,right,1,1.48864060777,right,1.4386604404086,0.564800977308793,9,0,0
1917,nb2TestingBlock,4,0,left,1,1.20930481319,left,1.4386604404086,0.564800977308793,9,0,0
1917,nb2TestingBlock,8,0,left,1,1.28501676769,left,1.4386604404086,0.564800977308793,9,0,0
1917,nb2TestingBlock,2,2,right,1,0.92592530273,right,1.4386604404086,0.564800977308793,9,0,0
1917,nb2TestingBlock,5,3,right,1,2.38541167449,right,1.4386604404086,0.564800977308793,9,0,0
1917,nb2TestingBlock,2,0,left,1,1.27871232077,left,1.4386604404086,0.564800977308793,9,0,0
1917,nb2TestingBlock,2,3,right,0,1.05599185368,left,1.4386604404086,0.564800977308793,9,0,0
1917,nb2TestingBlock,13,4,right,1,1.29777709805,right,1.4386604404086,0.564800977308793,9,0,0
1917,nb2TestingBlock,2,0,left,1,0.985301041697,left,1.4386604404086,0.564800977308793,9,0,0
1917,nb2TestingBlock,13,0,left,0,1.18148706465,right,1.4386604404086,0.564800977308793,9,0,0
1917,nb2TestingBlock,14,3,right,1,1.07389711991,right,1.4386604404086,0.564800977308793,9,0,0
1917,nb2TestingBlock,13,0,left,1,1.11465758368,left,1.4386604404086,0.564800977308793,9,0,0
1917,nb2TestingBlock,12,2,right,1,1.2024108455,right,1.4386604404086,0.564800977308793,9,0,0
1917,nb2TestingBlock,12,1,right,0,1.07028097185,left,1.4386604404086,0.564800977308793,9,0,0
1917,nb2TestingBlock,1,4,right,0,1.27909541914,left,1.4386604404086,0.564800977308793,9,0,0
1917,nb2TestingBlock,12,0,left,1,1.17691271998,left,1.4386604404086,0.564800977308793,9,0,0
1917,nb2TestingBlock,0,1,right,1,1.01589302331,right,1.4386604404086,0.564800977308793,9,0,0
1917,nb2TestingBlock,12,0,left,1,0.881256634738,left,1.4386604404086,0.564800977308793,9,0,0
1917,nb2TestingBlock,0,0,left,0,1.10871309899,right,1.4386604404086,0.564800977308793,9,0,0
1917,nb2TestingBlock,12,0,left,1,1.11688736638,left,1.4386604404086,0.564800977308793,9,0,0
1928,nb1TestingBlock,11,0,left,1,0.671484093897,left,0.5537758547731333,0.13715509611233537,3,0,0
1928,nb1TestingBlock,7,4,right,1,0.310439962441,right,0.5537758547731333,0.13715509611233537,3,0,0
1928,nb1TestingBlock,8,1,right,1,0.725572206573,right,0.5537758547731333,0.13715509611233537,3,0,0
1928,nb1TestingBlock,12,4,right,1,0.628766347418,right,0.5537758547731333,0.13715509611233537,3,0,0
1928,nb1TestingBlock,12,0,left,1,0.403460507042,left,0.5537758547731333,0.13715509611233537,3,0,0
1928,nb1TestingBlock,0,3,right,0,0.538924469484,left,0.5537758547731333,0.13715509611233537,3,0,0
1928,nb1TestingBlock,0,0,left,1,0.873243342723,left,0.5537758547731333,0.13715509611233537,3,0,0
1928,nb1TestingBlock,1,1,right,1,0.496527624413,right,0.5537758547731333,0.13715509611233537,3,0,0
1928,nb1TestingBlock,3,2,right,1,0.375129239437,right,0.5537758547731333,0.13715509611233537,3,0,0
1928,nb1TestingBlock,2,1,right,1,0.59904270422499994,right,0.5537758547731333,0.13715509611233537,3,0,0
1928,nb1TestingBlock,6,4,right,1,0.461324319249,right,0.5537758547731333,0.13715509611233537,3,0,0
1928,nb1TestingBlock,6,0,left,1,0.300393765258,left,0.5537758547731333,0.13715509611233537,3,0,0
1928,nb1TestingBlock,6,0,left,1,0.716058441315,left,0.5537758547731333,0.13715509611233537,3,0,0
1928,nb1TestingBlock,10,4,right,1,0.482242403756,right,0.5537758547731333,0.13715509611233537,3,0,0
1928,nb1TestingBlock,8,2,right,1,0.602109596244,right,0.5537758547731333,0.13715509611233537,3,0,0
1928,nb1TestingBlock,8,0,left,1,0.344515906103,left,0.5537758547731333,0.13715509611233537,3,0,0
1928,nb1TestingBlock,6,2,right,1,0.599509633803,right,0.5537758547731333,0.13715509611233537,3,0,0
1928,nb1TestingBlock,9,3,right,1,0.725303286385,right,0.5537758547731333,0.13715509611233537,3,0,0
1928,nb1TestingBlock,9,0,left,1,0.453662046948,left,0.5537758547731333,0.13715509611233537,3,0,0
1928,nb1TestingBlock,5,4,right,1,0.628343887324,right,0.5537758547731333,0.13715509611233537,3,0,0
1928,nb1TestingBlock,4,1,right,1,0.643314178404,right,0.5537758547731333,0.13715509611233537,3,0,0
1928,nb1TestingBlock,4,0,left,1,0.44245543662,left,0.5537758547731333,0.13715509611233537,3,0,0
1928,nb1TestingBlock,2,2,right,1,0.585900169014,right,0.5537758547731333,0.13715509611233537,3,0,0
1928,nb1TestingBlock,14,3,right,1,0.520479248826,right,0.5537758547731333,0.13715509611233537,3,0,0
1928,nb1TestingBlock,11,3,right,1,0.59911000939,right,0.5537758547731333,0.13715509611233537,3,0,0
1928,nb1TestingBlock,13,2,right,1,0.62264999061,right,0.5537758547731333,0.13715509611233537,3,0,0
1928,nb1TestingBlock,13,0,left,1,0.582547230047,left,0.5537758547731333,0.13715509611233537,3,0,0
1928,nb1TestingBlock,14,1,right,1,0.611459605634,right,0.5537758547731333,0.13715509611233537,3,0,0
1928,nb1TestingBlock,2,3,right,1,0.682221671362,right,0.5537758547731333,0.13715509611233537,3,0,0
1928,nb1TestingBlock,2,0,left,1,0.387084319249,left,0.5537758547731333,0.13715509611233537,3,0,0
1928,nb2TestingBlock,3,0,left,1,0.631869896714,left,1.284966309859111,0.5383251349123832,9,0,0
1928,nb2TestingBlock,9,3,right,1,0.935002741784,right,1.284966309859111,0.5383251349123832,9,0,0
1928,nb2TestingBlock,2,1,right,0,0.930648037559,left,1.284966309859111,0.5383251349123832,9,0,0
1928,nb2TestingBlock,9,0,left,0,0.701683680751,right,1.284966309859111,0.5383251349123832,9,0,0
1928,nb2TestingBlock,4,2,right,1,0.849469295775,right,1.284966309859111,0.5383251349123832,9,0,0
1928,nb2TestingBlock,10,1,right,1,1.35016683568,right,1.284966309859111,0.5383251349123832,9,0,0
1928,nb2TestingBlock,6,2,right,1,1.0996519061,right,1.284966309859111,0.5383251349123832,9,0,0
1928,nb2TestingBlock,6,4,right,1,0.811514591549,right,1.284966309859111,0.5383251349123832,9,0,0
1928,nb2TestingBlock,7,1,right,1,1.04706403756,right,1.284966309859111,0.5383251349123832,9,0,0
1928,nb2TestingBlock,6,0,left,1,1.01580559624,left,1.284966309859111,0.5383251349123832,9,0,0
1928,nb2TestingBlock,5,2,right,1,0.940257051643,right,1.284966309859111,0.5383251349123832,9,0,0
1928,nb2TestingBlock,10,4,right,1,1.68072022535,right,1.284966309859111,0.5383251349123832,9,0,0
1928,nb2TestingBlock,2,3,right,1,0.93711113615,right,1.284966309859111,0.5383251349123832,9,0,0
1928,nb2TestingBlock,13,3,right,1,0.701322215962,right,1.284966309859111,0.5383251349123832,9,0,0
1928,nb2TestingBlock,3,1,right,1,0.912618967136,right,1.284966309859111,0.5383251349123832,9,0,0
1928,nb2TestingBlock,1,3,right,0,0.980856187794,left,1.284966309859111,0.5383251349123832,9,0,0
1928,nb2TestingBlock,3,0,left,1,0.896358760563,left,1.284966309859111,0.5383251349123832,9,0,0
1928,nb2TestingBlock,1,0,left,1,0.979690065728,left,1.284966309859111,0.5383251349123832,9,0,0
1928,nb2TestingBlock,4,1,right,1,1.37602223474,right,1.284966309859111,0.5383251349123832,9,0,0
1928,nb2TestingBlock,1,0,left,1,3.39758122066,left,1.284966309859111,0.5383251349123832,9,1,0
1928,nb2TestingBlock,4,0,left,0,1.19415286385,right,1.284966309859111,0.5383251349123832,9,0,0
1928,nb2TestingBlock,5,4,right,1,1.35034621596,right,1.284966309859111,0.5383251349123832,9,0,0
1928,nb2TestingBlock,0,4,right,0,0.868787079812,left,1.284966309859111,0.5383251349123832,9,0,0
1928,nb2TestingBlock,5,0,left,1,1.10367459155,left,1.284966309859111,0.5383251349123832,9,0,0
1928,nb2TestingBlock,3,3,right,1,1.31202403756,right,1.284966309859111,0.5383251349123832,9,0,0
1928,nb2TestingBlock,1,4,right,1,1.30388401878,right,1.284966309859111,0.5383251349123832,9,0,0
1928,nb2TestingBlock,1,2,right,1,1.08806430047,right,1.284966309859111,0.5383251349123832,9,0,0
1928,nb2TestingBlock,12,4,right,1,1.39292815023,right,1.284966309859111,0.5383251349123832,9,0,0
1928,nb2TestingBlock,14,2,right,1,1.11739492958,right,1.284966309859111,0.5383251349123832,9,0,0
1928,nb2TestingBlock,11,1,right,0,0.98840428169,left,1.284966309859111,0.5383251349123832,9,0,0
1928,nb2TestingBlock,14,0,left,1,0.680643605634,left,1.284966309859111,0.5383251349123832,9,0,0
1928,nb2TestingBlock,14,3,right,1,1.06762095775,right,1.284966309859111,0.5383251349123832,9,0,0
1928,nb2TestingBlock,12,2,right,0,2.30897066667,left,1.284966309859111,0.5383251349123832,9,0,0
1928,nb2TestingBlock,0,1,right,1,2.61324379343,right,1.284966309859111,0.5383251349123832,9,0,0
1928,nb2TestingBlock,8,4,right,1,1.21739898592,right,1.284966309859111,0.5383251349123832,9,0,0
1928,nb2TestingBlock,0,0,left,1,1.71615158685,left,1.284966309859111,0.5383251349123832,9,0,0
1928,nb2TestingBlock,11,3,right,1,3.45169968075,right,1.284966309859111,0.5383251349123832,9,1,0
1928,nb2TestingBlock,13,2,right,1,1.63817915493,right,1.284966309859111,0.5383251349123832,9,0,0
1928,nb2TestingBlock,11,0,left,1,1.24161622535,left,1.284966309859111,0.5383251349123832,9,0,0
1928,nb2TestingBlock,11,2,right,1,1.13145479812,right,1.284966309859111,0.5383251349123832,9,0,0
1928,nb2TestingBlock,11,0,left,1,0.83406542723,left,1.284966309859111,0.5383251349123832,9,0,0
1928,nb2TestingBlock,8,3,right,1,1.55791143662,right,1.284966309859111,0.5383251349123832,9,0,0
1928,nb2TestingBlock,9,2,right,1,1.48348574648,right,1.284966309859111,0.5383251349123832,9,0,0
1928,nb2TestingBlock,9,1,right,1,1.50855000939,right,1.284966309859111,0.5383251349123832,9,0,0
1928,nb2TestingBlock,7,2,right,1,0.86046828169,right,1.284966309859111,0.5383251349123832,9,0,0
1928,nb2TestingBlock,9,0,left,1,1.56866884507,left,1.284966309859111,0.5383251349123832,9,0,0
1928,nb2TestingBlock,7,0,left,1,1.97351391549,left,1.284966309859111,0.5383251349123832,9,0,0
1928,nb2TestingBlock,8,1,right,1,1.21182497653,right,1.284966309859111,0.5383251349123832,9,0,0
1928,nb2TestingBlock,3,4,right,1,1.59954148357,right,1.284966309859111,0.5383251349123832,9,0,0
1928,nb2TestingBlock,8,0,left,0,2.37084694836,right,1.284966309859111,0.5383251349123832,9,0,0
1928,nb2TestingBlock,6,3,right,1,0.992633089202,right,1.284966309859111,0.5383251349123832,9,0,0
1928,nb2TestingBlock,10,2,right,1,1.34854910798,right,1.284966309859111,0.5383251349123832,9,0,0
1928,nb2TestingBlock,6,0,left,1,0.955085220657,left,1.284966309859111,0.5383251349123832,9,0,0
1928,nb2TestingBlock,10,0,left,1,0.838407511737,left,1.284966309859111,0.5383251349123832,9,0,0
1928,nb2TestingBlock,5,1,right,1,0.914534760563,right,1.284966309859111,0.5383251349123832,9,0,0
1928,nb2TestingBlock,10,0,left,0,2.05394659155,right,1.284966309859111,0.5383251349123832,9,0,0
1928,nb2TestingBlock,5,0,left,1,0.728834704225,left,1.284966309859111,0.5383251349123832,9,0,0
1928,nb2TestingBlock,7,3,right,1,0.851864037559,right,1.284966309859111,0.5383251349123832,9,0,0
1928,nb2TestingBlock,3,2,right,1,1.73586448826,right,1.284966309859111,0.5383251349123832,9,0,0
1928,nb2TestingBlock,10,3,right,1,1.07107635681,right,1.284966309859111,0.5383251349123832,9,0,0
1928,nb2TestingBlock,7,4,right,0,0.671566723005,left,1.284966309859111,0.5383251349123832,9,0,0
1928,nb2TestingBlock,14,4,right,1,1.90738448826,right,1.284966309859111,0.5383251349123832,9,0,0
1928,nb2TestingBlock,6,1,right,1,1.83553171831,right,1.284966309859111,0.5383251349123832,9,0,0
1928,nb2TestingBlock,14,0,left,1,1.03904510798,left,1.284966309859111,0.5383251349123832,9,0,0
1928,nb2TestingBlock,2,4,right,1,0.728978028169,right,1.284966309859111,0.5383251349123832,9,0,0
1928,nb2TestingBlock,13,1,right,0,1.4047005446,left,1.284966309859111,0.5383251349123832,9,0,0
1928,nb2TestingBlock,1,1,right,1,1.03304713615,right,1.284966309859111,0.5383251349123832,9,0,0
1928,nb2TestingBlock,0,2,right,1,1.15523124883,right,1.284966309859111,0.5383251349123832,9,0,0
1928,nb2TestingBlock,4,3,right,1,1.87313337089,right,1.284966309859111,0.5383251349123832,9,0,0
1928,nb2TestingBlock,4,4,right,1,1.50685776526,right,1.284966309859111,0.5383251349123832,9,0,0
1928,nb2TestingBlock,8,4,right,1,1.57116574648,right,1.284966309859111,0.5383251349123832,9,0,0
1928,nb2TestingBlock,4,0,left,1,1.19978726761,left,1.284966309859111,0.5383251349123832,9,0,0
1928,nb2TestingBlock,8,0,left,1,0.78799714554,left,1.284966309859111,0.5383251349123832,9,0,0
1928,nb2TestingBlock,2,2,right,1,0.815427605634,right,1.284966309859111,0.5383251349123832,9,0,0
1928,nb2TestingBlock,5,3,right,1,1.76355004695,right,1.284966309859111,0.5383251349123832,9,0,0
1928,nb2TestingBlock,2,0,left,1,0.76903000939,left,1.284966309859111,0.5383251349123832,9,0,0
1928,nb2TestingBlock,2,3,right,0,0.540757032864,left,1.284966309859111,0.5383251349123832,9,0,0
1928,nb2TestingBlock,13,4,right,1,1.07259102347,right,1.284966309859111,0.5383251349123832,9,0,0
1928,nb2TestingBlock,2,0,left,1,2.24956995305,left,1.284966309859111,0.5383251349123832,9,0,0
1928,nb2TestingBlock,13,0,left,1,1.03653558685,left,1.284966309859111,0.5383251349123832,9,0,0
1928,nb2TestingBlock,14,3,right,1,1.09473322066,right,1.284966309859111,0.5383251349123832,9,0,0
1928,nb2TestingBlock,13,0,left,1,1.02311301408,left,1.284966309859111,0.5383251349123832,9,0,0
1928,nb2TestingBlock,12,2,right,1,1.64982204695,right,1.284966309859111,0.5383251349123832,9,0,0
1928,nb2TestingBlock,12,1,right,0,1.6529718685399999,left,1.284966309859111,0.5383251349123832,9,0,0
1928,nb2TestingBlock,1,4,right,1,1.55050065728,right,1.284966309859111,0.5383251349123832,9,0,0
1928,nb2TestingBlock,12,0,left,1,1.0153422723,left,1.284966309859111,0.5383251349123832,9,0,0
1928,nb2TestingBlock,0,1,right,1,0.871196244131,right,1.284966309859111,0.5383251349123832,9,0,0
1928,nb2TestingBlock,12,0,left,1,1.1872679061,left,1.284966309859111,0.5383251349123832,9,0,0
1928,nb2TestingBlock,0,0,left,1,1.86448946479,left,1.284966309859111,0.5383251349123832,9,0,0
1928,nb2TestingBlock,12,0,left,1,1.3539160939,left,1.284966309859111,0.5383251349123832,9,0,0
1966,nb1TestingBlock,11,0,left,1,0.651034273881,left,0.7405355015966333,0.2624769502950053,3,0,0
1966,nb1TestingBlock,7,4,right,1,0.922442078619,right,0.7405355015966333,0.2624769502950053,3,0,0
1966,nb1TestingBlock,8,1,right,1,0.881138728873,right,0.7405355015966333,0.2624769502950053,3,0,0
1966,nb1TestingBlock,12,4,right,1,0.624145015883,right,0.7405355015966333,0.2624769502950053,3,0,0
1966,nb1TestingBlock,12,0,left,1,0.983218213701,left,0.7405355015966333,0.2624769502950053,3,0,0
1966,nb1TestingBlock,0,3,right,1,0.734263544835,right,0.7405355015966333,0.2624769502950053,3,0,0
1966,nb1TestingBlock,0,0,left,1,0.492809780381,left,0.7405355015966333,0.2624769502950053,3,0,0
1966,nb1TestingBlock,1,1,right,1,0.884005802654,right,0.7405355015966333,0.2624769502950053,3,0,0
1966,nb1TestingBlock,3,2,right,1,1.7476945025,right,0.7405355015966333,0.2624769502950053,3,1,0
1966,nb1TestingBlock,2,1,right,0,0.8766365036,left,0.7405355015966333,0.2624769502950053,3,0,0
1966,nb1TestingBlock,6,4,right,1,0.683696439925,right,0.7405355015966333,0.2624769502950053,3,0,0
1966,nb1TestingBlock,6,0,left,1,0.426610182529,left,0.7405355015966333,0.2624769502950053,3,0,0
1966,nb1TestingBlock,6,0,left,1,0.79313921443,left,0.7405355015966333,0.2624769502950053,3,0,0
1966,nb1TestingBlock,10,4,right,1,0.792528361255,right,0.7405355015966333,0.2624769502950053,3,0,0
1966,nb1TestingBlock,8,2,right,1,0.551827872212,right,0.7405355015966333,0.2624769502950053,3,0,0
1966,nb1TestingBlock,8,0,left,1,0.670680429743,left,0.7405355015966333,0.2624769502950053,3,0,0
1966,nb1TestingBlock,6,2,right,1,0.50915738919,right,0.7405355015966333,0.2624769502950053,3,0,0
1966,nb1TestingBlock,9,3,right,1,0.915234732276,right,0.7405355015966333,0.2624769502950053,3,0,0
1966,nb1TestingBlock,9,0,left,1,0.539453363028,left,0.7405355015966333,0.2624769502950053,3,0,0
1966,nb1TestingBlock,5,4,right,1,0.5224017557,right,0.7405355015966333,0.2624769502950053,3,0,0
1966,nb1TestingBlock,4,1,right,1,0.986081982325,right,0.7405355015966333,0.2624769502950053,3,0,0
1966,nb1TestingBlock,4,0,left,1,0.424405642565,left,0.7405355015966333,0.2624769502950053,3,0,0
1966,nb1TestingBlock,2,2,right,1,1.0714593051,right,0.7405355015966333,0.2624769502950053,3,0,0
1966,nb1TestingBlock,14,3,right,1,0.619615147476,right,0.7405355015966333,0.2624769502950053,3,0,0
1966,nb1TestingBlock,11,3,right,1,0.523373171497,right,0.7405355015966333,0.2624769502950053,3,0,0
1966,nb1TestingBlock,13,2,right,1,0.721698538399,right,0.7405355015966333,0.2624769502950053,3,0,0
1966,nb1TestingBlock,13,0,left,1,0.609566567672,left,0.7405355015966333,0.2624769502950053,3,0,0
1966,nb1TestingBlock,14,1,right,0,0.822496523575,left,0.7405355015966333,0.2624769502950053,3,0,0
1966,nb1TestingBlock,2,3,right,1,0.469367801517,right,0.7405355015966333,0.2624769502950053,3,0,0
1966,nb1TestingBlock,2,0,left,1,0.765882182558,left,0.7405355015966333,0.2624769502950053,3,0,0
1966,nb2TestingBlock,3,0,left,1,0.592237928063,left,0.69533522441751106,0.16119111295725017,9,0,0
1966,nb2TestingBlock,9,3,right,1,0.662401611474,right,0.69533522441751106,0.16119111295725017,9,0,0
1966,nb2TestingBlock,2,1,right,0,0.906218262978,left,0.69533522441751106,0.16119111295725017,9,0,0
1966,nb2TestingBlock,9,0,left,1,0.877961270767,left,0.69533522441751106,0.16119111295725017,9,0,0
1966,nb2TestingBlock,4,2,right,1,0.634072506739,right,0.69533522441751106,0.16119111295725017,9,0,0
1966,nb2TestingBlock,10,1,right,1,1.2222252603,right,0.69533522441751106,0.16119111295725017,9,1,0
1966,nb2TestingBlock,6,2,right,1,1.02470454898,right,0.69533522441751106,0.16119111295725017,9,0,0
1966,nb2TestingBlock,6,4,right,1,0.940290529342,right,0.69533522441751106,0.16119111295725017,9,0,0
1966,nb2TestingBlock,7,1,right,1,0.711847967569,right,0.69533522441751106,0.16119111295725017,9,0,0
1966,nb2TestingBlock,6,0,left,1,0.683904063901,left,0.69533522441751106,0.16119111295725017,9,0,0
1966,nb2TestingBlock,5,2,right,1,0.911867077388,right,0.69533522441751106,0.16119111295725017,9,0,0
1966,nb2TestingBlock,10,4,right,1,1.13125200563,right,0.69533522441751106,0.16119111295725017,9,0,0
1966,nb2TestingBlock,2,3,right,1,0.913878716349,right,0.69533522441751106,0.16119111295725017,9,0,0
1966,nb2TestingBlock,13,3,right,1,0.653814512165,right,0.69533522441751106,0.16119111295725017,9,0,0
1966,nb2TestingBlock,3,1,right,1,0.63316959784,right,0.69533522441751106,0.16119111295725017,9,0,0
1966,nb2TestingBlock,1,3,right,1,0.693503142303,right,0.69533522441751106,0.16119111295725017,9,0,0
1966,nb2TestingBlock,3,0,left,1,1.0161315717,left,0.69533522441751106,0.16119111295725017,9,0,0
1966,nb2TestingBlock,1,0,left,0,0.812208169628,right,0.69533522441751106,0.16119111295725017,9,0,0
1966,nb2TestingBlock,4,1,right,0,0.880231012472,left,0.69533522441751106,0.16119111295725017,9,0,0
1966,nb2TestingBlock,1,0,left,1,0.691956629124,left,0.69533522441751106,0.16119111295725017,9,0,0
1966,nb2TestingBlock,4,0,left,1,0.567993096428,left,0.69533522441751106,0.16119111295725017,9,0,0
1966,nb2TestingBlock,5,4,right,1,0.532318730146,right,0.69533522441751106,0.16119111295725017,9,0,0
1966,nb2TestingBlock,0,4,right,1,0.919742666457,right,0.69533522441751106,0.16119111295725017,9,0,0
1966,nb2TestingBlock,5,0,left,1,0.659298970113,left,0.69533522441751106,0.16119111295725017,9,0,0
1966,nb2TestingBlock,3,3,right,1,0.77498128079,right,0.69533522441751106,0.16119111295725017,9,0,0
1966,nb2TestingBlock,1,4,right,1,0.723017296189,right,0.69533522441751106,0.16119111295725017,9,0,0
1966,nb2TestingBlock,1,2,right,1,0.838902122873,right,0.69533522441751106,0.16119111295725017,9,0,0
1966,nb2TestingBlock,12,4,right,1,0.714694008531,right,0.69533522441751106,0.16119111295725017,9,0,0
1966,nb2TestingBlock,14,2,right,1,0.598579623645,right,0.69533522441751106,0.16119111295725017,9,0,0
1966,nb2TestingBlock,11,1,right,0,0.570112904176,left,0.69533522441751106,0.16119111295725017,9,0,0
1966,nb2TestingBlock,14,0,left,1,0.622152907397,left,0.69533522441751106,0.16119111295725017,9,0,0
1966,nb2TestingBlock,14,3,right,1,0.841893891228,right,0.69533522441751106,0.16119111295725017,9,0,0
1966,nb2TestingBlock,12,2,right,1,0.68564948746,right,0.69533522441751106,0.16119111295725017,9,0,0
1966,nb2TestingBlock,0,1,right,1,0.698279094699,right,0.69533522441751106,0.16119111295725017,9,0,0
1966,nb2TestingBlock,8,4,right,1,0.686205054367,right,0.69533522441751106,0.16119111295725017,9,0,0
1966,nb2TestingBlock,0,0,left,1,0.457230061788,left,0.69533522441751106,0.16119111295725017,9,0,0
1966,nb2TestingBlock,11,3,right,1,0.604880455463,right,0.69533522441751106,0.16119111295725017,9,0,0
1966,nb2TestingBlock,13,2,right,1,0.592987597848,right,0.69533522441751106,0.16119111295725017,9,0,0
1966,nb2TestingBlock,11,0,left,1,0.500958495636,left,0.69533522441751106,0.16119111295725017,9,0,0
1966,nb2TestingBlock,11,2,right,1,0.864744246923,right,0.69533522441751106,0.16119111295725017,9,0,0
1966,nb2TestingBlock,11,0,left,1,0.780558884083,left,0.69533522441751106,0.16119111295725017,9,0,0
1966,nb2TestingBlock,8,3,right,1,0.776265785131,right,0.69533522441751106,0.16119111295725017,9,0,0
1966,nb2TestingBlock,9,2,right,1,0.692337924097,right,0.69533522441751106,0.16119111295725017,9,0,0
1966,nb2TestingBlock,9,1,right,1,0.69609408521,right,0.69533522441751106,0.16119111295725017,9,0,0
1966,nb2TestingBlock,7,2,right,1,0.803849426645,right,0.69533522441751106,0.16119111295725017,9,0,0
1966,nb2TestingBlock,9,0,left,1,0.775861954995,left,0.69533522441751106,0.16119111295725017,9,0,0
1966,nb2TestingBlock,7,0,left,1,0.987793152435,left,0.69533522441751106,0.16119111295725017,9,0,0
1966,nb2TestingBlock,8,1,right,1,0.887329288622,right,0.69533522441751106,0.16119111295725017,9,0,0
1966,nb2TestingBlock,3,4,right,1,0.802877710379,right,0.69533522441751106,0.16119111295725017,9,0,0
1966,nb2TestingBlock,8,0,left,1,0.591131000814,left,0.69533522441751106,0.16119111295725017,9,0,0
1966,nb2TestingBlock,6,3,right,1,0.538845514541,right,0.69533522441751106,0.16119111295725017,9,0,0
1966,nb2TestingBlock,10,2,right,1,0.654813571096,right,0.69533522441751106,0.16119111295725017,9,0,0
1966,nb2TestingBlock,6,0,left,1,0.610958038924,left,0.69533522441751106,0.16119111295725017,9,0,0
1966,nb2TestingBlock,10,0,left,1,0.734161685895,left,0.69533522441751106,0.16119111295725017,9,0,0
1966,nb2TestingBlock,5,1,right,1,0.546747544869,right,0.69533522441751106,0.16119111295725017,9,0,0
1966,nb2TestingBlock,10,0,left,1,0.630212082934,left,0.69533522441751106,0.16119111295725017,9,0,0
1966,nb2TestingBlock,5,0,left,1,0.633798178678,left,0.69533522441751106,0.16119111295725017,9,0,0
1966,nb2TestingBlock,7,3,right,1,0.573515112982,right,0.69533522441751106,0.16119111295725017,9,0,0
1966,nb2TestingBlock,3,2,right,1,0.882003778696,right,0.69533522441751106,0.16119111295725017,9,0,0
1966,nb2TestingBlock,10,3,right,1,0.757563101464,right,0.69533522441751106,0.16119111295725017,9,0,0
1966,nb2TestingBlock,7,4,right,1,0.961037603076,right,0.69533522441751106,0.16119111295725017,9,0,0
1966,nb2TestingBlock,14,4,right,1,0.692697585312,right,0.69533522441751106,0.16119111295725017,9,0,0
1966,nb2TestingBlock,6,1,right,1,0.657338110387,right,0.69533522441751106,0.16119111295725017,9,0,0
1966,nb2TestingBlock,14,0,left,1,0.508486742713,left,0.69533522441751106,0.16119111295725017,9,0,0
1966,nb2TestingBlock,2,4,right,1,0.584757756003,right,0.69533522441751106,0.16119111295725017,9,0,0
1966,nb2TestingBlock,13,1,right,1,0.668350894736,right,0.69533522441751106,0.16119111295725017,9,0,0
1966,nb2TestingBlock,1,1,right,1,0.871693490523,right,0.69533522441751106,0.16119111295725017,9,0,0
1966,nb2TestingBlock,0,2,right,1,0.604446277972,right,0.69533522441751106,0.16119111295725017,9,0,0
1966,nb2TestingBlock,4,3,right,1,0.647731219795,right,0.69533522441751106,0.16119111295725017,9,0,0
1966,nb2TestingBlock,4,4,right,1,0.643510834306,right,0.69533522441751106,0.16119111295725017,9,0,0
1966,nb2TestingBlock,8,4,right,1,0.519238119161,right,0.69533522441751106,0.16119111295725017,9,0,0
1966,nb2TestingBlock,4,0,left,0,0.595903948521,right,0.69533522441751106,0.16119111295725017,9,0,0
1966,nb2TestingBlock,8,0,left,1,0.551123873692,left,0.69533522441751106,0.16119111295725017,9,0,0
1966,nb2TestingBlock,2,2,right,1,0.499201353792,right,0.69533522441751106,0.16119111295725017,9,0,0
1966,nb2TestingBlock,5,3,right,1,0.478855105507,right,0.69533522441751106,0.16119111295725017,9,0,0
1966,nb2TestingBlock,2,0,left,1,0.682622864718,left,0.69533522441751106,0.16119111295725017,9,0,0
1966,nb2TestingBlock,2,3,right,1,0.73478035126,right,0.69533522441751106,0.16119111295725017,9,0,0
1966,nb2TestingBlock,13,4,right,1,0.706045613575,right,0.69533522441751106,0.16119111295725017,9,0,0
1966,nb2TestingBlock,2,0,left,1,0.342657082111,left,0.69533522441751106,0.16119111295725017,9,0,0
1966,nb2TestingBlock,13,0,left,1,0.634244074454,left,0.69533522441751106,0.16119111295725017,9,0,0
1966,nb2TestingBlock,14,3,right,1,0.61377162925,right,0.69533522441751106,0.16119111295725017,9,0,0
1966,nb2TestingBlock,13,0,left,1,0.385631940079,left,0.69533522441751106,0.16119111295725017,9,0,0
1966,nb2TestingBlock,12,2,right,1,0.613385226307,right,0.69533522441751106,0.16119111295725017,9,0,0
1966,nb2TestingBlock,12,1,right,1,0.70498225431,right,0.69533522441751106,0.16119111295725017,9,0,0
1966,nb2TestingBlock,1,4,right,1,0.621277040694,right,0.69533522441751106,0.16119111295725017,9,0,0
1966,nb2TestingBlock,12,0,left,1,0.40105891232699997,left,0.69533522441751106,0.16119111295725017,9,0,0
1966,nb2TestingBlock,0,1,right,1,0.5011459882,right,0.69533522441751106,0.16119111295725017,9,0,0
1966,nb2TestingBlock,12,0,left,1,0.608543170764,left,0.69533522441751106,0.16119111295725017,9,0,0
1966,nb2TestingBlock,0,0,left,1,0.588219457642,left,0.69533522441751106,0.16119111295725017,9,0,0
1966,nb2TestingBlock,12,0,left,1,0.55221547703,left,0.69533522441751106,0.16119111295725017,9,0,0
1968,nb1TestingBlock,11,0,left,1,0.563158103484,left,0.7460360751784333,0.3939686565173475,3,0,0
1968,nb1TestingBlock,7,4,right,1,0.425865742983,right,0.7460360751784333,0.3939686565173475,3,0,0
1968,nb1TestingBlock,8,1,right,0,0.472834245359,left,0.7460360751784333,0.3939686565173475,3,0,0
1968,nb1TestingBlock,12,4,right,1,0.711733997892,right,0.7460360751784333,0.3939686565173475,3,0,0
1968,nb1TestingBlock,12,0,left,1,0.630886649656,left,0.7460360751784333,0.3939686565173475,3,0,0
1968,nb1TestingBlock,0,3,right,1,0.549795921065,right,0.7460360751784333,0.3939686565173475,3,0,0
1968,nb1TestingBlock,0,0,left,1,0.709005133222,left,0.7460360751784333,0.3939686565173475,3,0,0
1968,nb1TestingBlock,1,1,right,1,0.659585400063,right,0.7460360751784333,0.3939686565173475,3,0,0
1968,nb1TestingBlock,3,2,right,0,0.65157127559,left,0.7460360751784333,0.3939686565173475,3,0,0
1968,nb1TestingBlock,2,1,right,1,2.65748722103,right,0.7460360751784333,0.3939686565173475,3,1,0
1968,nb1TestingBlock,6,4,right,1,0.711976176368,right,0.7460360751784333,0.3939686565173475,3,0,0
1968,nb1TestingBlock,6,0,left,1,0.631121015924,left,0.7460360751784333,0.3939686565173475,3,0,0
1968,nb1TestingBlock,6,0,left,1,0.766015028286,left,0.7460360751784333,0.3939686565173475,3,0,0
1968,nb1TestingBlock,10,4,right,1,0.732559844525,right,0.7460360751784333,0.3939686565173475,3,0,0
1968,nb1TestingBlock,8,2,right,1,0.619601913871,right,0.7460360751784333,0.3939686565173475,3,0,0
1968,nb1TestingBlock,8,0,left,1,0.626839925435,left,0.7460360751784333,0.3939686565173475,3,0,0
1968,nb1TestingBlock,6,2,right,1,0.769681057557,right,0.7460360751784333,0.3939686565173475,3,0,0
1968,nb1TestingBlock,9,3,right,0,0.623264037037,left,0.7460360751784333,0.3939686565173475,3,0,0
1968,nb1TestingBlock,9,0,left,1,0.43148001697,left,0.7460360751784333,0.3939686565173475,3,0,0
1968,nb1TestingBlock,5,4,right,1,0.758250293559,right,0.7460360751784333,0.3939686565173475,3,0,0
1968,nb1TestingBlock,4,1,right,0,1.03757011458,left,0.7460360751784333,0.3939686565173475,3,0,0
1968,nb1TestingBlock,4,0,left,1,0.97124716507,left,0.7460360751784333,0.3939686565173475,3,0,0
1968,nb1TestingBlock,2,2,right,1,0.786830058015,right,0.7460360751784333,0.3939686565173475,3,0,0
1968,nb1TestingBlock,14,3,right,1,0.849366189481,right,0.7460360751784333,0.3939686565173475,3,0,0
1968,nb1TestingBlock,11,3,right,1,0.712158861869,right,0.7460360751784333,0.3939686565173475,3,0,0
1968,nb1TestingBlock,13,2,right,1,0.887118388618,right,0.7460360751784333,0.3939686565173475,3,0,0
1968,nb1TestingBlock,13,0,left,1,0.335327950521,left,0.7460360751784333,0.3939686565173475,3,0,0
1968,nb1TestingBlock,14,1,right,1,0.683950778276,right,0.7460360751784333,0.3939686565173475,3,0,0
1968,nb1TestingBlock,2,3,right,1,0.883015777056,right,0.7460360751784333,0.3939686565173475,3,0,0
1968,nb1TestingBlock,2,0,left,1,0.531783971991,left,0.7460360751784333,0.3939686565173475,3,0,0
1968,nb2TestingBlock,3,0,left,1,0.394898747763,left,0.6524872804552667,0.17673265839460145,9,0,0
1968,nb2TestingBlock,9,3,right,1,0.650196627289,right,0.6524872804552667,0.17673265839460145,9,0,0
1968,nb2TestingBlock,2,1,right,0,0.901654806131,left,0.6524872804552667,0.17673265839460145,9,0,0
1968,nb2TestingBlock,9,0,left,1,0.745159134696,left,0.6524872804552667,0.17673265839460145,9,0,0
1968,nb2TestingBlock,4,2,right,1,0.837351613101,right,0.6524872804552667,0.17673265839460145,9,0,0
1968,nb2TestingBlock,10,1,right,1,0.977150490787,right,0.6524872804552667,0.17673265839460145,9,0,0
1968,nb2TestingBlock,6,2,right,1,0.716879238875,right,0.6524872804552667,0.17673265839460145,9,0,0
1968,nb2TestingBlock,6,4,right,1,1.23319323439,right,0.6524872804552667,0.17673265839460145,9,1,0
1968,nb2TestingBlock,7,1,right,1,0.683083322617,right,0.6524872804552667,0.17673265839460145,9,0,0
1968,nb2TestingBlock,6,0,left,1,0.559228862867,left,0.6524872804552667,0.17673265839460145,9,0,0
1968,nb2TestingBlock,5,2,right,1,0.57060674422,right,0.6524872804552667,0.17673265839460145,9,0,0
1968,nb2TestingBlock,10,4,right,1,0.614792297402,right,0.6524872804552667,0.17673265839460145,9,0,0
1968,nb2TestingBlock,2,3,right,1,0.562613352147,right,0.6524872804552667,0.17673265839460145,9,0,0
1968,nb2TestingBlock,13,3,right,1,0.582285696086,right,0.6524872804552667,0.17673265839460145,9,0,0
1968,nb2TestingBlock,3,1,right,1,0.81079190559,right,0.6524872804552667,0.17673265839460145,9,0,0
1968,nb2TestingBlock,1,3,right,1,0.694705786203,right,0.6524872804552667,0.17673265839460145,9,0,0
1968,nb2TestingBlock,3,0,left,1,0.75401908102,left,0.6524872804552667,0.17673265839460145,9,0,0
1968,nb2TestingBlock,1,0,left,1,0.717832328363,left,0.6524872804552667,0.17673265839460145,9,0,0
1968,nb2TestingBlock,4,1,right,1,0.70621437182,right,0.6524872804552667,0.17673265839460145,9,0,0
1968,nb2TestingBlock,1,0,left,1,0.47732446267,left,0.6524872804552667,0.17673265839460145,9,0,0
1968,nb2TestingBlock,4,0,left,1,0.465163557608,left,0.6524872804552667,0.17673265839460145,9,0,0
1968,nb2TestingBlock,5,4,right,1,0.629112677292,right,0.6524872804552667,0.17673265839460145,9,0,0
1968,nb2TestingBlock,0,4,right,1,0.785075315703,right,0.6524872804552667,0.17673265839460145,9,0,0
1968,nb2TestingBlock,5,0,left,1,0.588498204995,left,0.6524872804552667,0.17673265839460145,9,0,0
1968,nb2TestingBlock,3,3,right,1,0.57647311218,right,0.6524872804552667,0.17673265839460145,9,0,0
1968,nb2TestingBlock,1,4,right,1,0.932528054844,right,0.6524872804552667,0.17673265839460145,9,0,0
1968,nb2TestingBlock,1,2,right,0,0.648214429511,left,0.6524872804552667,0.17673265839460145,9,0,0
1968,nb2TestingBlock,12,4,right,1,0.812066497522,right,0.6524872804552667,0.17673265839460145,9,0,0
1968,nb2TestingBlock,14,2,right,1,0.863955790109,right,0.6524872804552667,0.17673265839460145,9,0,0
1968,nb2TestingBlock,11,1,right,1,0.843821323965,right,0.6524872804552667,0.17673265839460145,9,0,0
1968,nb2TestingBlock,14,0,left,1,0.40753559663,left,0.6524872804552667,0.17673265839460145,9,0,0
1968,nb2TestingBlock,14,3,right,1,0.827287384725,right,0.6524872804552667,0.17673265839460145,9,0,0
1968,nb2TestingBlock,12,2,right,1,0.719037812293,right,0.6524872804552667,0.17673265839460145,9,0,0
1968,nb2TestingBlock,0,1,right,1,0.931138383065,right,0.6524872804552667,0.17673265839460145,9,0,0
1968,nb2TestingBlock,8,4,right,1,0.583459630711,right,0.6524872804552667,0.17673265839460145,9,0,0
1968,nb2TestingBlock,0,0,left,1,0.562910216086,left,0.6524872804552667,0.17673265839460145,9,0,0
1968,nb2TestingBlock,11,3,right,1,0.57466067971,right,0.6524872804552667,0.17673265839460145,9,0,0
1968,nb2TestingBlock,13,2,right,1,0.642376005221,right,0.6524872804552667,0.17673265839460145,9,0,0
1968,nb2TestingBlock,11,0,left,1,0.390454502296,left,0.6524872804552667,0.17673265839460145,9,0,0
1968,nb2TestingBlock,11,2,right,1,0.634311401859,right,0.6524872804552667,0.17673265839460145,9,0,0
1968,nb2TestingBlock,11,0,left,1,0.630483119018,left,0.6524872804552667,0.17673265839460145,9,0,0
1968,nb2TestingBlock,8,3,right,1,0.625782873474,right,0.6524872804552667,0.17673265839460145,9,0,0
1968,nb2TestingBlock,9,2,right,1,0.685313407794,right,0.6524872804552667,0.17673265839460145,9,0,0
1968,nb2TestingBlock,9,1,right,1,0.841771821002,right,0.6524872804552667,0.17673265839460145,9,0,0
1968,nb2TestingBlock,7,2,right,1,0.701788755467,right,0.6524872804552667,0.17673265839460145,9,0,0
1968,nb2TestingBlock,9,0,left,1,0.385171646249,left,0.6524872804552667,0.17673265839460145,9,0,0
1968,nb2TestingBlock,7,0,left,1,0.636552303941,left,0.6524872804552667,0.17673265839460145,9,0,0
1968,nb2TestingBlock,8,1,right,1,0.69722462264,right,0.6524872804552667,0.17673265839460145,9,0,0
1968,nb2TestingBlock,3,4,right,1,0.676576353525,right,0.6524872804552667,0.17673265839460145,9,0,0
1968,nb2TestingBlock,8,0,left,1,0.584244457238,left,0.6524872804552667,0.17673265839460145,9,0,0
1968,nb2TestingBlock,6,3,right,1,0.940652151182,right,0.6524872804552667,0.17673265839460145,9,0,0
1968,nb2TestingBlock,10,2,right,1,0.82420276408,right,0.6524872804552667,0.17673265839460145,9,0,0
1968,nb2TestingBlock,6,0,left,1,0.556033969888,left,0.6524872804552667,0.17673265839460145,9,0,0
1968,nb2TestingBlock,10,0,left,1,0.687891436737,left,0.6524872804552667,0.17673265839460145,9,0,0
1968,nb2TestingBlock,5,1,right,1,0.523830542372,right,0.6524872804552667,0.17673265839460145,9,0,0
1968,nb2TestingBlock,10,0,left,1,0.503142310803,left,0.6524872804552667,0.17673265839460145,9,0,0
1968,nb2TestingBlock,5,0,left,1,0.779241698927,left,0.6524872804552667,0.17673265839460145,9,0,0
1968,nb2TestingBlock,7,3,right,1,0.614904673023,right,0.6524872804552667,0.17673265839460145,9,0,0
1968,nb2TestingBlock,3,2,right,1,0.882869448374,right,0.6524872804552667,0.17673265839460145,9,0,0
1968,nb2TestingBlock,10,3,right,1,0.766427873481,right,0.6524872804552667,0.17673265839460145,9,0,0
1968,nb2TestingBlock,7,4,right,1,0.954181995623,right,0.6524872804552667,0.17673265839460145,9,0,0
1968,nb2TestingBlock,14,4,right,1,0.886592566864,right,0.6524872804552667,0.17673265839460145,9,0,0
1968,nb2TestingBlock,6,1,right,1,0.770964964046,right,0.6524872804552667,0.17673265839460145,9,0,0
1968,nb2TestingBlock,14,0,left,1,0.358189178047,left,0.6524872804552667,0.17673265839460145,9,0,0
1968,nb2TestingBlock,2,4,right,1,0.569727870716,right,0.6524872804552667,0.17673265839460145,9,0,0
1968,nb2TestingBlock,13,1,right,1,1.11018850259,right,0.6524872804552667,0.17673265839460145,9,0,0
1968,nb2TestingBlock,1,1,right,1,0.637683271417,right,0.6524872804552667,0.17673265839460145,9,0,0
1968,nb2TestingBlock,0,2,right,1,0.553629311889,right,0.6524872804552667,0.17673265839460145,9,0,0
1968,nb2TestingBlock,4,3,right,1,0.52531966958,right,0.6524872804552667,0.17673265839460145,9,0,0
1968,nb2TestingBlock,4,4,right,1,0.641101413289,right,0.6524872804552667,0.17673265839460145,9,0,0
1968,nb2TestingBlock,8,4,right,1,0.428728917552,right,0.6524872804552667,0.17673265839460145,9,0,0
1968,nb2TestingBlock,4,0,left,1,0.368858552145,left,0.6524872804552667,0.17673265839460145,9,0,0
1968,nb2TestingBlock,8,0,left,1,0.300750813371,left,0.6524872804552667,0.17673265839460145,9,0,0
1968,nb2TestingBlock,2,2,right,1,0.536388067271,right,0.6524872804552667,0.17673265839460145,9,0,0
1968,nb2TestingBlock,5,3,right,1,0.716582675405,right,0.6524872804552667,0.17673265839460145,9,0,0
1968,nb2TestingBlock,2,0,left,1,0.471942151194,left,0.6524872804552667,0.17673265839460145,9,0,0
1968,nb2TestingBlock,2,3,right,1,0.387545355882,right,0.6524872804552667,0.17673265839460145,9,0,0
1968,nb2TestingBlock,13,4,right,1,0.527235463582,right,0.6524872804552667,0.17673265839460145,9,0,0
1968,nb2TestingBlock,2,0,left,1,0.347486151357,left,0.6524872804552667,0.17673265839460145,9,0,0
1968,nb2TestingBlock,13,0,left,1,0.543936764376,left,0.6524872804552667,0.17673265839460145,9,0,0
1968,nb2TestingBlock,14,3,right,1,0.587412608425,right,0.6524872804552667,0.17673265839460145,9,0,0
1968,nb2TestingBlock,13,0,left,1,0.511513092661,left,0.6524872804552667,0.17673265839460145,9,0,0
1968,nb2TestingBlock,12,2,right,0,0.427117799697,left,0.6524872804552667,0.17673265839460145,9,0,0
1968,nb2TestingBlock,12,1,right,1,0.654851802397,right,0.6524872804552667,0.17673265839460145,9,0,0
1968,nb2TestingBlock,1,4,right,1,0.818128471175,right,0.6524872804552667,0.17673265839460145,9,0,0
1968,nb2TestingBlock,12,0,left,1,0.782991258739,left,0.6524872804552667,0.17673265839460145,9,0,0
1968,nb2TestingBlock,0,1,right,1,0.610730549703,right,0.6524872804552667,0.17673265839460145,9,0,0
1968,nb2TestingBlock,12,0,left,1,0.518051911527,left,0.6524872804552667,0.17673265839460145,9,0,0
1968,nb2TestingBlock,0,0,left,1,0.610319507326,left,0.6524872804552667,0.17673265839460145,9,0,0
1968,nb2TestingBlock,12,0,left,1,0.413535673551,left,0.6524872804552667,0.17673265839460145,9,0,0
1969,nb1TestingBlock,11,0,left,1,0.422969262582,left,0.6022448068372334,0.16233793517063563,3,0,0
1969,nb1TestingBlock,7,4,right,1,0.50106456306,right,0.6022448068372334,0.16233793517063563,3,0,0
1969,nb1TestingBlock,8,1,right,0,1.04493219307,left,0.6022448068372334,0.16233793517063563,3,0,0
1969,nb1TestingBlock,12,4,right,1,0.521660237623,right,0.6022448068372334,0.16233793517063563,3,0,0
1969,nb1TestingBlock,12,0,left,1,0.480494428396,left,0.6022448068372334,0.16233793517063563,3,0,0
1969,nb1TestingBlock,0,3,right,1,0.600592946301,right,0.6022448068372334,0.16233793517063563,3,0,0
1969,nb1TestingBlock,0,0,left,1,0.438790778955,left,0.6022448068372334,0.16233793517063563,3,0,0
1969,nb1TestingBlock,1,1,right,1,0.605804888397,right,0.6022448068372334,0.16233793517063563,3,0,0
1969,nb1TestingBlock,3,2,right,1,0.964846583332,right,0.6022448068372334,0.16233793517063563,3,0,0
1969,nb1TestingBlock,2,1,right,1,0.602909565323,right,0.6022448068372334,0.16233793517063563,3,0,0
1969,nb1TestingBlock,6,4,right,1,0.603374691944,right,0.6022448068372334,0.16233793517063563,3,0,0
1969,nb1TestingBlock,6,0,left,1,0.354213151786,left,0.6022448068372334,0.16233793517063563,3,0,0
1969,nb1TestingBlock,6,0,left,0,0.736748548583,right,0.6022448068372334,0.16233793517063563,3,0,0
1969,nb1TestingBlock,10,4,right,1,0.567483923385,right,0.6022448068372334,0.16233793517063563,3,0,0
1969,nb1TestingBlock,8,2,right,1,0.72697367828,right,0.6022448068372334,0.16233793517063563,3,0,0
1969,nb1TestingBlock,8,0,left,1,0.349708514642,left,0.6022448068372334,0.16233793517063563,3,0,0
1969,nb1TestingBlock,6,2,right,1,0.517593083916,right,0.6022448068372334,0.16233793517063563,3,0,0
1969,nb1TestingBlock,9,3,right,1,0.596109041545,right,0.6022448068372334,0.16233793517063563,3,0,0
1969,nb1TestingBlock,9,0,left,1,0.468426976623,left,0.6022448068372334,0.16233793517063563,3,0,0
1969,nb1TestingBlock,5,4,right,1,0.62514219714,right,0.6022448068372334,0.16233793517063563,3,0,0
1969,nb1TestingBlock,4,1,right,1,0.551759759096,right,0.6022448068372334,0.16233793517063563,3,0,0
1969,nb1TestingBlock,4,0,left,1,0.478361396173,left,0.6022448068372334,0.16233793517063563,3,0,0
1969,nb1TestingBlock,2,2,right,1,0.805711382322,right,0.6022448068372334,0.16233793517063563,3,0,0
1969,nb1TestingBlock,14,3,right,1,0.604546823047,right,0.6022448068372334,0.16233793517063563,3,0,0
1969,nb1TestingBlock,11,3,right,1,0.531705830849,right,0.6022448068372334,0.16233793517063563,3,0,0
1969,nb1TestingBlock,13,2,right,1,0.642235600455,right,0.6022448068372334,0.16233793517063563,3,0,0
1969,nb1TestingBlock,13,0,left,1,0.649565851774,left,0.6022448068372334,0.16233793517063563,3,0,0
1969,nb1TestingBlock,14,1,right,1,0.665159912816,right,0.6022448068372334,0.16233793517063563,3,0,0
1969,nb1TestingBlock,2,3,right,1,0.888231395085,right,0.6022448068372334,0.16233793517063563,3,0,0
1969,nb1TestingBlock,2,0,left,1,0.520226998617,left,0.6022448068372334,0.16233793517063563,3,0,0
1969,nb2TestingBlock,3,0,left,1,0.543402503391,left,0.8683472353846222,0.23469311887206137,9,0,0
1969,nb2TestingBlock,9,3,right,1,0.853895856106,right,0.8683472353846222,0.23469311887206137,9,0,0
1969,nb2TestingBlock,2,1,right,1,1.05750383249,right,0.8683472353846222,0.23469311887206137,9,0,0
1969,nb2TestingBlock,9,0,left,1,0.715109944756,left,0.8683472353846222,0.23469311887206137,9,0,0
1969,nb2TestingBlock,4,2,right,1,0.735488680416,right,0.8683472353846222,0.23469311887206137,9,0,0
1969,nb2TestingBlock,10,1,right,1,1.29869512152,right,0.8683472353846222,0.23469311887206137,9,0,0
1969,nb2TestingBlock,6,2,right,1,0.826797422934,right,0.8683472353846222,0.23469311887206137,9,0,0
1969,nb2TestingBlock,6,4,right,1,0.783429473523,right,0.8683472353846222,0.23469311887206137,9,0,0
1969,nb2TestingBlock,7,1,right,1,0.786499369315,right,0.8683472353846222,0.23469311887206137,9,0,0
1969,nb2TestingBlock,6,0,left,1,0.878958909609,left,0.8683472353846222,0.23469311887206137,9,0,0
1969,nb2TestingBlock,5,2,right,1,0.866325974437,right,0.8683472353846222,0.23469311887206137,9,0,0
1969,nb2TestingBlock,10,4,right,1,0.798463459617,right,0.8683472353846222,0.23469311887206137,9,0,0
1969,nb2TestingBlock,2,3,right,1,0.906599990505,right,0.8683472353846222,0.23469311887206137,9,0,0
1969,nb2TestingBlock,13,3,right,1,0.718262169161,right,0.8683472353846222,0.23469311887206137,9,0,0
1969,nb2TestingBlock,3,1,right,1,0.769982266296,right,0.8683472353846222,0.23469311887206137,9,0,0
1969,nb2TestingBlock,1,3,right,1,0.749119474443,right,0.8683472353846222,0.23469311887206137,9,0,0
1969,nb2TestingBlock,3,0,left,1,0.872939906722,left,0.8683472353846222,0.23469311887206137,9,0,0
1969,nb2TestingBlock,1,0,left,0,0.964860104455,right,0.8683472353846222,0.23469311887206137,9,0,0
1969,nb2TestingBlock,4,1,right,0,0.952928164378,left,0.8683472353846222,0.23469311887206137,9,0,0
1969,nb2TestingBlock,1,0,left,0,0.845119145129,right,0.8683472353846222,0.23469311887206137,9,0,0
1969,nb2TestingBlock,4,0,left,1,0.72853882335,left,0.8683472353846222,0.23469311887206137,9,0,0
1969,nb2TestingBlock,5,4,right,1,0.820172673751,right,0.8683472353846222,0.23469311887206137,9,0,0
1969,nb2TestingBlock,0,4,right,1,1.06417665677,right,0.8683472353846222,0.23469311887206137,9,0,0
1969,nb2TestingBlock,5,0,left,1,1.04128419417,left,0.8683472353846222,0.23469311887206137,9,0,0
1969,nb2TestingBlock,3,3,right,1,0.980470691314,right,0.8683472353846222,0.23469311887206137,9,0,0
1969,nb2TestingBlock,1,4,right,1,0.983698333537,right,0.8683472353846222,0.23469311887206137,9,0,0
1969,nb2TestingBlock,1,2,right,1,0.85144282398,right,0.8683472353846222,0.23469311887206137,9,0,0
1969,nb2TestingBlock,12,4,right,1,0.807340827841,right,0.8683472353846222,0.23469311887206137,9,0,0
1969,nb2TestingBlock,14,2,right,1,0.819190439304,right,0.8683472353846222,0.23469311887206137,9,0,0
1969,nb2TestingBlock,11,1,right,1,0.823268109441,right,0.8683472353846222,0.23469311887206137,9,0,0
1969,nb2TestingBlock,14,0,left,0,0.819396561308,right,0.8683472353846222,0.23469311887206137,9,0,0
1969,nb2TestingBlock,14,3,right,1,0.862424078896,right,0.8683472353846222,0.23469311887206137,9,0,0
1969,nb2TestingBlock,12,2,right,1,0.970907651934,right,0.8683472353846222,0.23469311887206137,9,0,0
1969,nb2TestingBlock,0,1,right,1,1.09506220618,right,0.8683472353846222,0.23469311887206137,9,0,0
1969,nb2TestingBlock,8,4,right,1,0.774913870448,right,0.8683472353846222,0.23469311887206137,9,0,0
1969,nb2TestingBlock,0,0,left,0,0.811269765628,right,0.8683472353846222,0.23469311887206137,9,0,0
1969,nb2TestingBlock,11,3,right,1,1.42239446463,right,0.8683472353846222,0.23469311887206137,9,0,0
1969,nb2TestingBlock,13,2,right,1,1.74649307148,right,0.8683472353846222,0.23469311887206137,9,1,0
1969,nb2TestingBlock,11,0,left,1,0.984966614846,left,0.8683472353846222,0.23469311887206137,9,0,0
1969,nb2TestingBlock,11,2,right,1,0.900039541772,right,0.8683472353846222,0.23469311887206137,9,0,0
1969,nb2TestingBlock,11,0,left,1,0.816073670288,left,0.8683472353846222,0.23469311887206137,9,0,0
1969,nb2TestingBlock,8,3,right,1,1.17978135443,right,0.8683472353846222,0.23469311887206137,9,0,0
1969,nb2TestingBlock,9,2,right,1,1.0411916496,right,0.8683472353846222,0.23469311887206137,9,0,0
1969,nb2TestingBlock,9,1,right,1,0.915365584116,right,0.8683472353846222,0.23469311887206137,9,0,0
1969,nb2TestingBlock,7,2,right,1,0.903186658197,right,0.8683472353846222,0.23469311887206137,9,0,0
1969,nb2TestingBlock,9,0,left,1,0.794785413774,left,0.8683472353846222,0.23469311887206137,9,0,0
1969,nb2TestingBlock,7,0,left,1,0.846711031974,left,0.8683472353846222,0.23469311887206137,9,0,0
1969,nb2TestingBlock,8,1,right,1,0.818878251605,right,0.8683472353846222,0.23469311887206137,9,0,0
1969,nb2TestingBlock,3,4,right,1,0.910180984734,right,0.8683472353846222,0.23469311887206137,9,0,0
1969,nb2TestingBlock,8,0,left,1,0.738552867289,left,0.8683472353846222,0.23469311887206137,9,0,0
1969,nb2TestingBlock,6,3,right,1,0.710058453316,right,0.8683472353846222,0.23469311887206137,9,0,0
1969,nb2TestingBlock,10,2,right,1,0.91374875831,right,0.8683472353846222,0.23469311887206137,9,0,0
1969,nb2TestingBlock,6,0,left,1,0.717645005027,left,0.8683472353846222,0.23469311887206137,9,0,0
1969,nb2TestingBlock,10,0,left,1,0.962141757854,left,0.8683472353846222,0.23469311887206137,9,0,0
1969,nb2TestingBlock,5,1,right,1,0.821827659169,right,0.8683472353846222,0.23469311887206137,9,0,0
1969,nb2TestingBlock,10,0,left,1,0.785530655991,left,0.8683472353846222,0.23469311887206137,9,0,0
1969,nb2TestingBlock,5,0,left,1,0.709559073184,left,0.8683472353846222,0.23469311887206137,9,0,0
1969,nb2TestingBlock,7,3,right,1,0.656985342502,right,0.8683472353846222,0.23469311887206137,9,0,0
1969,nb2TestingBlock,3,2,right,1,0.749104150504,right,0.8683472353846222,0.23469311887206137,9,0,0
1969,nb2TestingBlock,10,3,right,1,0.680383795565,right,0.8683472353846222,0.23469311887206137,9,0,0
1969,nb2TestingBlock,7,4,right,1,0.7800437844,right,0.8683472353846222,0.23469311887206137,9,0,0
1969,nb2TestingBlock,14,4,right,1,0.984806765128,right,0.8683472353846222,0.23469311887206137,9,0,0
1969,nb2TestingBlock,6,1,right,1,0.819988486013,right,0.8683472353846222,0.23469311887206137,9,0,0
1969,nb2TestingBlock,14,0,left,1,0.735785844646,left,0.8683472353846222,0.23469311887206137,9,0,0
1969,nb2TestingBlock,2,4,right,1,0.763397479543,right,0.8683472353846222,0.23469311887206137,9,0,0
1969,nb2TestingBlock,13,1,right,0,0.727628701557,left,0.8683472353846222,0.23469311887206137,9,0,0
1969,nb2TestingBlock,1,1,right,1,0.763654380874,right,0.8683472353846222,0.23469311887206137,9,0,0
1969,nb2TestingBlock,0,2,right,1,0.999122328902,right,0.8683472353846222,0.23469311887206137,9,0,0
1969,nb2TestingBlock,4,3,right,1,0.875430797993,right,0.8683472353846222,0.23469311887206137,9,0,0
1969,nb2TestingBlock,4,4,right,1,0.743223664008,right,0.8683472353846222,0.23469311887206137,9,0,0
1969,nb2TestingBlock,8,4,right,1,0.778529118189,right,0.8683472353846222,0.23469311887206137,9,0,0
1969,nb2TestingBlock,4,0,left,1,0.694251059004,left,0.8683472353846222,0.23469311887206137,9,0,0
1969,nb2TestingBlock,8,0,left,1,0.626621407964,left,0.8683472353846222,0.23469311887206137,9,0,0
1969,nb2TestingBlock,2,2,right,1,0.750607999817,right,0.8683472353846222,0.23469311887206137,9,0,0
1969,nb2TestingBlock,5,3,right,1,0.770036651257,right,0.8683472353846222,0.23469311887206137,9,0,0
1969,nb2TestingBlock,2,0,left,1,0.573606888682,left,0.8683472353846222,0.23469311887206137,9,0,0
1969,nb2TestingBlock,2,3,right,1,0.802200096992,right,0.8683472353846222,0.23469311887206137,9,0,0
1969,nb2TestingBlock,13,4,right,1,2.36597923276,right,0.8683472353846222,0.23469311887206137,9,1,0
1969,nb2TestingBlock,2,0,left,1,0.946825631001,left,0.8683472353846222,0.23469311887206137,9,0,0
1969,nb2TestingBlock,13,0,left,1,1.04690056807,left,0.8683472353846222,0.23469311887206137,9,0,0
1969,nb2TestingBlock,14,3,right,1,0.792314954422,right,0.8683472353846222,0.23469311887206137,9,0,0
1969,nb2TestingBlock,13,0,left,1,0.981008531528,left,0.8683472353846222,0.23469311887206137,9,0,0
1969,nb2TestingBlock,12,2,right,1,0.848148177082,right,0.8683472353846222,0.23469311887206137,9,0,0
1969,nb2TestingBlock,12,1,right,1,0.772462641138,right,0.8683472353846222,0.23469311887206137,9,0,0
1969,nb2TestingBlock,1,4,right,1,0.792130766684,right,0.8683472353846222,0.23469311887206137,9,0,0
1969,nb2TestingBlock,12,0,left,1,0.772066322008,left,0.8683472353846222,0.23469311887206137,9,0,0
1969,nb2TestingBlock,0,1,right,1,0.79931859551,right,0.8683472353846222,0.23469311887206137,9,0,0
1969,nb2TestingBlock,12,0,left,1,0.691249069296,left,0.8683472353846222,0.23469311887206137,9,0,0
1969,nb2TestingBlock,0,0,left,0,0.591359221376,right,0.8683472353846222,0.23469311887206137,9,0,0
1969,nb2TestingBlock,12,0,left,1,0.65902673156,left,0.8683472353846222,0.23469311887206137,9,0,0
1974,nb1TestingBlock,11,0,left,1,0.411502625951,left,0.5668975773260333,0.16608136167988694,3,0,0
1974,nb1TestingBlock,7,4,right,1,0.458920888536,right,0.5668975773260333,0.16608136167988694,3,0,0
1974,nb1TestingBlock,8,1,right,1,0.89792607073,right,0.5668975773260333,0.16608136167988694,3,0,0
1974,nb1TestingBlock,12,4,right,1,0.737047594638,right,0.5668975773260333,0.16608136167988694,3,0,0
1974,nb1TestingBlock,12,0,left,1,0.328476948145,left,0.5668975773260333,0.16608136167988694,3,0,0
1974,nb1TestingBlock,0,3,right,1,0.519678485827,right,0.5668975773260333,0.16608136167988694,3,0,0
1974,nb1TestingBlock,0,0,left,1,0.798640196122,left,0.5668975773260333,0.16608136167988694,3,0,0
1974,nb1TestingBlock,1,1,right,1,0.605137364049,right,0.5668975773260333,0.16608136167988694,3,0,0
1974,nb1TestingBlock,3,2,right,1,0.604059881128,right,0.5668975773260333,0.16608136167988694,3,0,0
1974,nb1TestingBlock,2,1,right,1,0.53099776541,right,0.5668975773260333,0.16608136167988694,3,0,0
1974,nb1TestingBlock,6,4,right,1,0.522218953784,right,0.5668975773260333,0.16608136167988694,3,0,0
1974,nb1TestingBlock,6,0,left,1,0.313053858822,left,0.5668975773260333,0.16608136167988694,3,0,0
1974,nb1TestingBlock,6,0,left,1,0.616048305849,left,0.5668975773260333,0.16608136167988694,3,0,0
1974,nb1TestingBlock,10,4,right,1,0.495183627308,right,0.5668975773260333,0.16608136167988694,3,0,0
1974,nb1TestingBlock,8,2,right,1,0.70225745592,right,0.5668975773260333,0.16608136167988694,3,0,0
1974,nb1TestingBlock,8,0,left,1,0.300947950604,left,0.5668975773260333,0.16608136167988694,3,0,0
1974,nb1TestingBlock,6,2,right,1,0.451925061754,right,0.5668975773260333,0.16608136167988694,3,0,0
1974,nb1TestingBlock,9,3,right,1,0.649847496805,right,0.5668975773260333,0.16608136167988694,3,0,0
1974,nb1TestingBlock,9,0,left,1,0.706181284548,left,0.5668975773260333,0.16608136167988694,3,0,0
1974,nb1TestingBlock,5,4,right,1,0.545663071151,right,0.5668975773260333,0.16608136167988694,3,0,0
1974,nb1TestingBlock,4,1,right,0,0.704111952459,left,0.5668975773260333,0.16608136167988694,3,0,0
1974,nb1TestingBlock,4,0,left,1,0.991302916025,left,0.5668975773260333,0.16608136167988694,3,0,0
1974,nb1TestingBlock,2,2,right,1,0.462140417118,right,0.5668975773260333,0.16608136167988694,3,0,0
1974,nb1TestingBlock,14,3,right,1,0.652686030311,right,0.5668975773260333,0.16608136167988694,3,0,0
1974,nb1TestingBlock,11,3,right,1,0.516009455168,right,0.5668975773260333,0.16608136167988694,3,0,0
1974,nb1TestingBlock,13,2,right,1,0.523096624618,right,0.5668975773260333,0.16608136167988694,3,0,0
1974,nb1TestingBlock,13,0,left,1,0.507952070339,left,0.5668975773260333,0.16608136167988694,3,0,0
1974,nb1TestingBlock,14,1,right,0,0.648331028233,left,0.5668975773260333,0.16608136167988694,3,0,0
1974,nb1TestingBlock,2,3,right,1,0.502562251981,right,0.5668975773260333,0.16608136167988694,3,0,0
1974,nb1TestingBlock,2,0,left,1,0.303019686448,left,0.5668975773260333,0.16608136167988694,3,0,0
1974,nb2TestingBlock,3,0,left,1,1.3570942455,left,0.7811765329602667,0.20527628371285322,9,0,0
1974,nb2TestingBlock,9,3,right,1,0.644770166523,right,0.7811765329602667,0.20527628371285322,9,0,0
1974,nb2TestingBlock,2,1,right,1,1.05668383448,right,0.7811765329602667,0.20527628371285322,9,0,0
1974,nb2TestingBlock,9,0,left,1,0.794108217625,left,0.7811765329602667,0.20527628371285322,9,0,0
1974,nb2TestingBlock,4,2,right,1,0.853665440051,right,0.7811765329602667,0.20527628371285322,9,0,0
1974,nb2TestingBlock,10,1,right,1,1.01581039425,right,0.7811765329602667,0.20527628371285322,9,0,0
1974,nb2TestingBlock,6,2,right,1,1.06079365361,right,0.7811765329602667,0.20527628371285322,9,0,0
1974,nb2TestingBlock,6,4,right,0,0.839144660044,left,0.7811765329602667,0.20527628371285322,9,0,0
1974,nb2TestingBlock,7,1,right,0,1.04265101662,left,0.7811765329602667,0.20527628371285322,9,0,0
1974,nb2TestingBlock,6,0,left,0,0.484937323606,right,0.7811765329602667,0.20527628371285322,9,0,0
1974,nb2TestingBlock,5,2,right,1,0.896868418783,right,0.7811765329602667,0.20527628371285322,9,0,0
1974,nb2TestingBlock,10,4,right,1,1.01578275108,right,0.7811765329602667,0.20527628371285322,9,0,0
1974,nb2TestingBlock,2,3,right,0,1.160199115,left,0.7811765329602667,0.20527628371285322,9,0,0
1974,nb2TestingBlock,13,3,right,1,0.510334491442,right,0.7811765329602667,0.20527628371285322,9,0,0
1974,nb2TestingBlock,3,1,right,1,0.665779280659,right,0.7811765329602667,0.20527628371285322,9,0,0
1974,nb2TestingBlock,1,3,right,1,0.741797713849,right,0.7811765329602667,0.20527628371285322,9,0,0
1974,nb2TestingBlock,3,0,left,0,0.985985510769,right,0.7811765329602667,0.20527628371285322,9,0,0
1974,nb2TestingBlock,1,0,left,1,0.725381873949,left,0.7811765329602667,0.20527628371285322,9,0,0
1974,nb2TestingBlock,4,1,right,1,0.697078266544,right,0.7811765329602667,0.20527628371285322,9,0,0
1974,nb2TestingBlock,1,0,left,0,0.948856218528,right,0.7811765329602667,0.20527628371285322,9,0,0
1974,nb2TestingBlock,4,0,left,0,1.12021626579,right,0.7811765329602667,0.20527628371285322,9,0,0
1974,nb2TestingBlock,5,4,right,0,1.04800297585,left,0.7811765329602667,0.20527628371285322,9,0,0
1974,nb2TestingBlock,0,4,right,1,0.961805544079,right,0.7811765329602667,0.20527628371285322,9,0,0
1974,nb2TestingBlock,5,0,left,1,0.709805545281,left,0.7811765329602667,0.20527628371285322,9,0,0
1974,nb2TestingBlock,3,3,right,1,0.841303231517,right,0.7811765329602667,0.20527628371285322,9,0,0
1974,nb2TestingBlock,1,4,right,0,0.725834380719,left,0.7811765329602667,0.20527628371285322,9,0,0
1974,nb2TestingBlock,1,2,right,0,0.745253411303,left,0.7811765329602667,0.20527628371285322,9,0,0
1974,nb2TestingBlock,12,4,right,1,1.38091334856,right,0.7811765329602667,0.20527628371285322,9,0,0
1974,nb2TestingBlock,14,2,right,1,0.777483852028,right,0.7811765329602667,0.20527628371285322,9,0,0
1974,nb2TestingBlock,11,1,right,0,0.653453128441,left,0.7811765329602667,0.20527628371285322,9,0,0
1974,nb2TestingBlock,14,0,left,0,0.745428284438,right,0.7811765329602667,0.20527628371285322,9,0,0
1974,nb2TestingBlock,14,3,right,1,0.829127013483,right,0.7811765329602667,0.20527628371285322,9,0,0
1974,nb2TestingBlock,12,2,right,0,0.624846647979,left,0.7811765329602667,0.20527628371285322,9,0,0
1974,nb2TestingBlock,0,1,right,1,0.964806030539,right,0.7811765329602667,0.20527628371285322,9,0,0
1974,nb2TestingBlock,8,4,right,1,0.8090433448,right,0.7811765329602667,0.20527628371285322,9,0,0
1974,nb2TestingBlock,0,0,left,1,0.540578229136,left,0.7811765329602667,0.20527628371285322,9,0,0
1974,nb2TestingBlock,11,3,right,1,0.824332124345,right,0.7811765329602667,0.20527628371285322,9,0,0
1974,nb2TestingBlock,13,2,right,1,0.675987424759,right,0.7811765329602667,0.20527628371285322,9,0,0
1974,nb2TestingBlock,11,0,left,1,0.591437165709,left,0.7811765329602667,0.20527628371285322,9,0,0
1974,nb2TestingBlock,11,2,right,1,0.739751517896,right,0.7811765329602667,0.20527628371285322,9,0,0
1974,nb2TestingBlock,11,0,left,1,0.727479750622,left,0.7811765329602667,0.20527628371285322,9,0,0
1974,nb2TestingBlock,8,3,right,1,0.819804652887,right,0.7811765329602667,0.20527628371285322,9,0,0
1974,nb2TestingBlock,9,2,right,1,0.967517765999,right,0.7811765329602667,0.20527628371285322,9,0,0
1974,nb2TestingBlock,9,1,right,1,0.914741234334,right,0.7811765329602667,0.20527628371285322,9,0,0
1974,nb2TestingBlock,7,2,right,1,0.710668793589,right,0.7811765329602667,0.20527628371285322,9,0,0
1974,nb2TestingBlock,9,0,left,1,0.539207488176,left,0.7811765329602667,0.20527628371285322,9,0,0
1974,nb2TestingBlock,7,0,left,0,0.542267768027,right,0.7811765329602667,0.20527628371285322,9,0,0
1974,nb2TestingBlock,8,1,right,1,0.913913140935,right,0.7811765329602667,0.20527628371285322,9,0,0
1974,nb2TestingBlock,3,4,right,1,0.710040211807,right,0.7811765329602667,0.20527628371285322,9,0,0
1974,nb2TestingBlock,8,0,left,1,0.993979196106,left,0.7811765329602667,0.20527628371285322,9,0,0
1974,nb2TestingBlock,6,3,right,1,0.63831788871,right,0.7811765329602667,0.20527628371285322,9,0,0
1974,nb2TestingBlock,10,2,right,1,0.793731729588,right,0.7811765329602667,0.20527628371285322,9,0,0
1974,nb2TestingBlock,6,0,left,1,0.485455933623,left,0.7811765329602667,0.20527628371285322,9,0,0
1974,nb2TestingBlock,10,0,left,0,1.12093498836,right,0.7811765329602667,0.20527628371285322,9,0,0
1974,nb2TestingBlock,5,1,right,1,1.01652130463,right,0.7811765329602667,0.20527628371285322,9,0,0
1974,nb2TestingBlock,10,0,left,1,0.49930396286,left,0.7811765329602667,0.20527628371285322,9,0,0
1974,nb2TestingBlock,5,0,left,0,0.615657996224,right,0.7811765329602667,0.20527628371285322,9,0,0
1974,nb2TestingBlock,7,3,right,1,0.659805049507,right,0.7811765329602667,0.20527628371285322,9,0,0
1974,nb2TestingBlock,3,2,right,1,0.86374888939,right,0.7811765329602667,0.20527628371285322,9,0,0
1974,nb2TestingBlock,10,3,right,1,1.14708753602,right,0.7811765329602667,0.20527628371285322,9,0,0
1974,nb2TestingBlock,7,4,right,1,0.928816418364,right,0.7811765329602667,0.20527628371285322,9,0,0
1974,nb2TestingBlock,14,4,right,1,0.700561306705,right,0.7811765329602667,0.20527628371285322,9,0,0
1974,nb2TestingBlock,6,1,right,1,0.769091744396,right,0.7811765329602667,0.20527628371285322,9,0,0
1974,nb2TestingBlock,14,0,left,1,0.428074108951,left,0.7811765329602667,0.20527628371285322,9,0,0
1974,nb2TestingBlock,2,4,right,1,0.744769655725,right,0.7811765329602667,0.20527628371285322,9,0,0
1974,nb2TestingBlock,13,1,right,1,0.948139298771,right,0.7811765329602667,0.20527628371285322,9,0,0
1974,nb2TestingBlock,1,1,right,1,0.655688920525,right,0.7811765329602667,0.20527628371285322,9,0,0
1974,nb2TestingBlock,0,2,right,1,0.563745013336,right,0.7811765329602667,0.20527628371285322,9,0,0
1974,nb2TestingBlock,4,3,right,1,0.567530926554,right,0.7811765329602667,0.20527628371285322,9,0,0
1974,nb2TestingBlock,4,4,right,1,0.46714022632,right,0.7811765329602667,0.20527628371285322,9,0,0
1974,nb2TestingBlock,8,4,right,1,0.59921811878,right,0.7811765329602667,0.20527628371285322,9,0,0
1974,nb2TestingBlock,4,0,left,1,0.579540384126,left,0.7811765329602667,0.20527628371285322,9,0,0
1974,nb2TestingBlock,8,0,left,0,1.18288815301,right,0.7811765329602667,0.20527628371285322,9,0,0
1974,nb2TestingBlock,2,2,right,1,0.923234600122,right,0.7811765329602667,0.20527628371285322,9,0,0
1974,nb2TestingBlock,5,3,right,1,0.903221241257,right,0.7811765329602667,0.20527628371285322,9,0,0
1974,nb2TestingBlock,2,0,left,1,0.490898334108,left,0.7811765329602667,0.20527628371285322,9,0,0
1974,nb2TestingBlock,2,3,right,1,0.759164539094,right,0.7811765329602667,0.20527628371285322,9,0,0
1974,nb2TestingBlock,13,4,right,1,0.794924292252,right,0.7811765329602667,0.20527628371285322,9,0,0
1974,nb2TestingBlock,2,0,left,1,0.534747021373,left,0.7811765329602667,0.20527628371285322,9,0,0
1974,nb2TestingBlock,13,0,left,1,0.554348136354,left,0.7811765329602667,0.20527628371285322,9,0,0
1974,nb2TestingBlock,14,3,right,1,0.598307095853,right,0.7811765329602667,0.20527628371285322,9,0,0
1974,nb2TestingBlock,13,0,left,0,0.753628091717,right,0.7811765329602667,0.20527628371285322,9,0,0
1974,nb2TestingBlock,12,2,right,1,0.82203653887000006,right,0.7811765329602667,0.20527628371285322,9,0,0
1974,nb2TestingBlock,12,1,right,1,0.833726898042,right,0.7811765329602667,0.20527628371285322,9,0,0
1974,nb2TestingBlock,1,4,right,1,0.709882465423,right,0.7811765329602667,0.20527628371285322,9,0,0
1974,nb2TestingBlock,12,0,left,1,0.561338554689,left,0.7811765329602667,0.20527628371285322,9,0,0
1974,nb2TestingBlock,0,1,right,1,0.548816796955,right,0.7811765329602667,0.20527628371285322,9,0,0
1974,nb2TestingBlock,12,0,left,0,0.68906595211,right,0.7811765329602667,0.20527628371285322,9,0,0
1974,nb2TestingBlock,0,0,left,0,0.652809222725,right,0.7811765329602667,0.20527628371285322,9,0,0
1974,nb2TestingBlock,12,0,left,1,0.553216568959,left,0.7811765329602667,0.20527628371285322,9,0,0
1985,nb1TestingBlock,11,0,left,1,0.618537966643,left,0.6777055517432,0.20646208731562862,3,0,0
1985,nb1TestingBlock,7,4,right,1,0.722592433233,right,0.6777055517432,0.20646208731562862,3,0,0
1985,nb1TestingBlock,8,1,right,1,0.689133123326,right,0.6777055517432,0.20646208731562862,3,0,0
1985,nb1TestingBlock,12,4,right,1,1.09625309333,right,0.6777055517432,0.20646208731562862,3,0,0
1985,nb1TestingBlock,12,0,left,0,0.611272028874,right,0.6777055517432,0.20646208731562862,3,0,0
1985,nb1TestingBlock,0,3,right,1,0.609697271623,right,0.6777055517432,0.20646208731562862,3,0,0
1985,nb1TestingBlock,0,0,left,1,0.617499546292,left,0.6777055517432,0.20646208731562862,3,0,0
1985,nb1TestingBlock,1,1,right,0,0.616483961574,left,0.6777055517432,0.20646208731562862,3,0,0
1985,nb1TestingBlock,3,2,right,1,0.382980903402,right,0.6777055517432,0.20646208731562862,3,0,0
1985,nb1TestingBlock,2,1,right,0,0.709689699808,left,0.6777055517432,0.20646208731562862,3,0,0
1985,nb1TestingBlock,6,4,right,1,0.676477375296,right,0.6777055517432,0.20646208731562862,3,0,0
1985,nb1TestingBlock,6,0,left,1,0.396087655177,left,0.6777055517432,0.20646208731562862,3,0,0
1985,nb1TestingBlock,6,0,left,1,0.555656746788,left,0.6777055517432,0.20646208731562862,3,0,0
1985,nb1TestingBlock,10,4,right,1,0.466201761228,right,0.6777055517432,0.20646208731562862,3,0,0
1985,nb1TestingBlock,8,2,right,1,0.744941306415,right,0.6777055517432,0.20646208731562862,3,0,0
1985,nb1TestingBlock,8,0,left,1,0.407682147223,left,0.6777055517432,0.20646208731562862,3,0,0
1985,nb1TestingBlock,6,2,right,1,0.862808626581,right,0.6777055517432,0.20646208731562862,3,0,0
1985,nb1TestingBlock,9,3,right,1,0.982099868635,right,0.6777055517432,0.20646208731562862,3,0,0
1985,nb1TestingBlock,9,0,left,1,0.508237954504,left,0.6777055517432,0.20646208731562862,3,0,0
1985,nb1TestingBlock,5,4,right,1,0.715281725605,right,0.6777055517432,0.20646208731562862,3,0,0
1985,nb1TestingBlock,4,1,right,0,0.9390012175,left,0.6777055517432,0.20646208731562862,3,0,0
1985,nb1TestingBlock,4,0,left,1,0.577873413675,left,0.6777055517432,0.20646208731562862,3,0,0
1985,nb1TestingBlock,2,2,right,1,0.545243097329,right,0.6777055517432,0.20646208731562862,3,0,0
1985,nb1TestingBlock,14,3,right,1,0.792028080617,right,0.6777055517432,0.20646208731562862,3,0,0
1985,nb1TestingBlock,11,3,right,1,0.727000611755,right,0.6777055517432,0.20646208731562862,3,0,0
1985,nb1TestingBlock,13,2,right,1,0.981857390272,right,0.6777055517432,0.20646208731562862,3,0,0
1985,nb1TestingBlock,13,0,left,1,0.373262238397,left,0.6777055517432,0.20646208731562862,3,0,0
1985,nb1TestingBlock,14,1,right,0,1.17403816916,left,0.6777055517432,0.20646208731562862,3,0,0
1985,nb1TestingBlock,2,3,right,1,0.499248827871,right,0.6777055517432,0.20646208731562862,3,0,0
1985,nb1TestingBlock,2,0,left,0,0.731998310163,right,0.6777055517432,0.20646208731562862,3,0,0
1985,nb2TestingBlock,3,0,left,1,0.60265187799,left,1.2859250975225,0.9385919466784166,9,0,0
1985,nb2TestingBlock,9,3,right,1,0.600640239029,right,1.2859250975225,0.9385919466784166,9,0,0
1985,nb2TestingBlock,2,1,right,0,0.828621881584,left,1.2859250975225,0.9385919466784166,9,0,0
1985,nb2TestingBlock,9,0,left,1,0.664803259005,left,1.2859250975225,0.9385919466784166,9,0,0
1985,nb2TestingBlock,4,2,right,1,0.779908369019,right,1.2859250975225,0.9385919466784166,9,0,0
1985,nb2TestingBlock,10,1,right,0,0.671870286395,left,1.2859250975225,0.9385919466784166,9,0,0
1985,nb2TestingBlock,6,2,right,1,0.971867401894,right,1.2859250975225,0.9385919466784166,9,0,0
1985,nb2TestingBlock,6,4,right,0,0.975659018332,left,1.2859250975225,0.9385919466784166,9,0,0
1985,nb2TestingBlock,7,1,right,0,0.923392161128,left,1.2859250975225,0.9385919466784166,9,0,0
1985,nb2TestingBlock,6,0,left,0,1.06368347169,right,1.2859250975225,0.9385919466784166,9,0,0
1985,nb2TestingBlock,5,2,right,0,8.34447161351,left,1.2859250975225,0.9385919466784166,9,1,0
1985,nb2TestingBlock,10,4,right,1,0.864814556634,right,1.2859250975225,0.9385919466784166,9,0,0
1985,nb2TestingBlock,2,3,right,1,1.06054747829,right,1.2859250975225,0.9385919466784166,9,0,0
1985,nb2TestingBlock,13,3,right,1,2.13499524658,right,1.2859250975225,0.9385919466784166,9,0,0
1985,nb2TestingBlock,3,1,right,0,1.165811332,left,1.2859250975225,0.9385919466784166,9,0,0
1985,nb2TestingBlock,1,3,right,1,1.76281169136,right,1.2859250975225,0.9385919466784166,9,0,0
1985,nb2TestingBlock,3,0,left,1,0.672924030657,left,1.2859250975225,0.9385919466784166,9,0,0
1985,nb2TestingBlock,1,0,left,1,0.916598259925,left,1.2859250975225,0.9385919466784166,9,0,0
1985,nb2TestingBlock,4,1,right,1,1.63208129966,right,1.2859250975225,0.9385919466784166,9,0,0
1985,nb2TestingBlock,1,0,left,1,0.698861403334,left,1.2859250975225,0.9385919466784166,9,0,0
1985,nb2TestingBlock,4,0,left,1,1.19052189036,left,1.2859250975225,0.9385919466784166,9,0,0
1985,nb2TestingBlock,5,4,right,1,1.57901068828,right,1.2859250975225,0.9385919466784166,9,0,0
1985,nb2TestingBlock,0,4,right,1,1.60040377004,right,1.2859250975225,0.9385919466784166,9,0,0
1985,nb2TestingBlock,5,0,left,1,0.644454006031,left,1.2859250975225,0.9385919466784166,9,0,0
1985,nb2TestingBlock,3,3,right,1,0.69626445105,right,1.2859250975225,0.9385919466784166,9,0,0
1985,nb2TestingBlock,1,4,right,1,1.15615035702,right,1.2859250975225,0.9385919466784166,9,0,0
1985,nb2TestingBlock,1,2,right,1,0.642826666731,right,1.2859250975225,0.9385919466784166,9,0,0
1985,nb2TestingBlock,12,4,right,1,1.40541240552,right,1.2859250975225,0.9385919466784166,9,0,0
1985,nb2TestingBlock,14,2,right,0,1.01814982098,left,1.2859250975225,0.9385919466784166,9,0,0
1985,nb2TestingBlock,11,1,right,0,1.45295649331,left,1.2859250975225,0.9385919466784166,9,0,0
1985,nb2TestingBlock,14,0,left,1,0.927546743939,left,1.2859250975225,0.9385919466784166,9,0,0
1985,nb2TestingBlock,14,3,right,0,0.618659656528,left,1.2859250975225,0.9385919466784166,9,0,0
1985,nb2TestingBlock,12,2,right,1,2.7746339388,right,1.2859250975225,0.9385919466784166,9,0,0
1985,nb2TestingBlock,0,1,right,1,2.02854153621,right,1.2859250975225,0.9385919466784166,9,0,0
1985,nb2TestingBlock,8,4,right,1,1.30370580253,right,1.2859250975225,0.9385919466784166,9,0,0
1985,nb2TestingBlock,0,0,left,1,0.775907325791,left,1.2859250975225,0.9385919466784166,9,0,0
1985,nb2TestingBlock,11,3,right,1,0.948535695099,right,1.2859250975225,0.9385919466784166,9,0,0
1985,nb2TestingBlock,13,2,right,1,1.8960912608,right,1.2859250975225,0.9385919466784166,9,0,0
1985,nb2TestingBlock,11,0,left,1,1.36858303697,left,1.2859250975225,0.9385919466784166,9,0,0
