subject_id,trial_condition,trial_cue,trial_corr_resp,trial_shift,resp_corr,resp_rt,resp_value,mean_rt,sd_rt,exclude_thresh,exclude_trial,exclude_part
3961,color,color,right,0,1,0.3506552,right,0.4026018,0.04779804952109503,2,0,0
3961,color,color,right,0,1,0.3438693,right,0.4026018,0.04779804952109503,2,0,0
3961,color,color,left,0,1,0.3918741,left,0.4026018,0.04779804952109503,2,0,0
3961,color,color,right,0,1,0.3599191,right,0.4026018,0.04779804952109503,2,0,0
3961,color,color,left,0,1,0.439826,left,0.4026018,0.04779804952109503,2,0,0
3961,color,color,right,0,1,0.3438317,right,0.4026018,0.04779804952109503,2,0,0
3961,color,color,right,0,1,0.4718827,right,0.4026018,0.04779804952109503,2,0,0
3961,color,color,right,0,1,0.4079007,right,0.4026018,0.04779804952109503,2,0,0
3961,color,color,right,0,1,0.3598566,right,0.4026018,0.04779804952109503,2,0,0
3961,color,color,left,0,1,0.3918572,left,0.4026018,0.04779804952109503,2,0,0
3961,color,color,left,0,1,0.4718221,left,0.4026018,0.04779804952109503,2,0,0
3961,color,color,left,0,1,0.3918886,left,0.4026018,0.04779804952109503,2,0,0
3961,color,color,right,0,1,0.439874,right,0.4026018,0.04779804952109503,2,0,0
3961,color,color,left,0,1,0.4717005,left,0.4026018,0.04779804952109503,2,0,0
3961,color,color,left,0,1,0.4400189,left,0.4026018,0.04779804952109503,2,0,0
3961,color,color,right,0,1,0.3598663,right,0.4026018,0.04779804952109503,2,0,0
3961,color,color,left,0,1,0.4718374,left,0.4026018,0.04779804952109503,2,0,0
3961,color,color,left,0,1,0.4238884,left,0.4026018,0.04779804952109503,2,0,0
3961,color,color,right,0,1,0.3758355,right,0.4026018,0.04779804952109503,2,0,0
3961,color,color,left,0,1,0.3438317,left,0.4026018,0.04779804952109503,2,0,0
3961,shape,shape,right,0,1,0.5999113,right,0.74706545,0.41615265931924994,2,0,0
3961,shape,shape,right,0,1,0.567895,right,0.74706545,0.41615265931924994,2,0,0
3961,shape,shape,right,0,0,0.6958772,left,0.74706545,0.41615265931924994,2,0,0
3961,shape,shape,left,0,1,1.0478707,left,0.74706545,0.41615265931924994,2,0,0
3961,shape,shape,left,0,1,0.7118141,left,0.74706545,0.41615265931924994,2,0,0
3961,shape,shape,left,0,1,2.3918822,left,0.74706545,0.41615265931924994,2,1,0
3961,shape,shape,left,0,1,0.6798693,left,0.74706545,0.41615265931924994,2,0,0
3961,shape,shape,left,0,1,0.6638187,left,0.74706545,0.41615265931924994,2,0,0
3961,shape,shape,right,0,1,1.0158871,right,0.74706545,0.41615265931924994,2,0,0
3961,shape,shape,left,0,1,0.8078486,left,0.74706545,0.41615265931924994,2,0,0
3961,shape,shape,left,0,1,0.4878309,left,0.74706545,0.41615265931924994,2,0,0
3961,shape,shape,left,0,1,0.5839045,left,0.74706545,0.41615265931924994,2,0,0
3961,shape,shape,left,0,1,0.5038527,left,0.74706545,0.41615265931924994,2,0,0
3961,shape,shape,right,0,1,0.7598552,right,0.74706545,0.41615265931924994,2,0,0
3961,shape,shape,right,0,1,0.5998597,right,0.74706545,0.41615265931924994,2,0,0
3961,shape,shape,left,0,1,0.5998078,left,0.74706545,0.41615265931924994,2,0,0
3961,shape,shape,right,0,1,0.5999208,right,0.74706545,0.41615265931924994,2,0,0
3961,shape,shape,right,0,1,0.4879029,right,0.74706545,0.41615265931924994,2,0,0
3961,shape,shape,right,0,1,0.5678396,right,0.74706545,0.41615265931924994,2,0,0
3961,shape,shape,right,0,1,0.5678607,right,0.74706545,0.41615265931924994,2,0,0
3961,shift,shape,left,0,1,0.4878152,left,0.6196122671875,0.22446297904782744,6.4,0,0
3961,shift,color,left,1,1,0.4878621,left,0.6196122671875,0.22446297904782744,6.4,0,0
3961,shift,shape,right,1,1,1.0479478,right,0.6196122671875,0.22446297904782744,6.4,0,0
3961,shift,shape,left,0,1,0.5677714,left,0.6196122671875,0.22446297904782744,6.4,0,0
3961,shift,shape,right,0,1,0.5519255,right,0.6196122671875,0.22446297904782744,6.4,0,0
3961,shift,color,right,1,1,0.3918095,right,0.6196122671875,0.22446297904782744,6.4,0,0
3961,shift,color,left,0,1,0.4399158,left,0.6196122671875,0.22446297904782744,6.4,0,0
3961,shift,shape,left,1,1,0.5198378,left,0.6196122671875,0.22446297904782744,6.4,0,0
3961,shift,shape,right,0,1,0.5198454,right,0.6196122671875,0.22446297904782744,6.4,0,0
3961,shift,shape,left,0,1,0.6478981,left,0.6196122671875,0.22446297904782744,6.4,0,0
3961,shift,color,left,1,1,1.0798091,left,0.6196122671875,0.22446297904782744,6.4,0,0
3961,shift,color,left,0,1,0.439913,left,0.6196122671875,0.22446297904782744,6.4,0,0
3961,shift,shape,right,1,1,0.5678504,right,0.6196122671875,0.22446297904782744,6.4,0,0
3961,shift,shape,left,0,1,0.5039488,left,0.6196122671875,0.22446297904782744,6.4,0,0
3961,shift,color,left,1,1,0.4397377,left,0.6196122671875,0.22446297904782744,6.4,0,0
3961,shift,color,right,0,1,0.4558474,right,0.6196122671875,0.22446297904782744,6.4,0,0
3961,shift,shape,left,1,1,0.4719443,left,0.6196122671875,0.22446297904782744,6.4,0,0
3961,shift,shape,left,0,1,0.9998508,left,0.6196122671875,0.22446297904782744,6.4,0,0
3961,shift,shape,left,0,1,0.4077977,left,0.6196122671875,0.22446297904782744,6.4,0,0
3961,shift,color,left,1,1,0.4399016,left,0.6196122671875,0.22446297904782744,6.4,0,0
3961,shift,color,right,0,1,0.5518269,right,0.6196122671875,0.22446297904782744,6.4,0,0
3961,shift,color,right,0,1,0.5518495,right,0.6196122671875,0.22446297904782744,6.4,0,0
3961,shift,color,right,0,1,0.4399513,right,0.6196122671875,0.22446297904782744,6.4,0,0
3961,shift,shape,left,1,1,0.3598312,left,0.6196122671875,0.22446297904782744,6.4,0,0
3961,shift,shape,right,0,1,0.8879122,right,0.6196122671875,0.22446297904782744,6.4,0,0
3961,shift,shape,left,0,1,0.3918933,left,0.6196122671875,0.22446297904782744,6.4,0,0
3961,shift,shape,right,0,1,1.14382,right,0.6196122671875,0.22446297904782744,6.4,0,0
3961,shift,color,left,1,1,0.5038807,left,0.6196122671875,0.22446297904782744,6.4,0,0
3961,shift,shape,right,1,1,0.4877549,right,0.6196122671875,0.22446297904782744,6.4,0,0
3961,shift,color,left,1,1,0.3759756,left,0.6196122671875,0.22446297904782744,6.4,0,0
3961,shift,shape,left,1,1,0.6318335,left,0.6196122671875,0.22446297904782744,6.4,0,0
3961,shift,color,left,1,1,0.5198276,left,0.6196122671875,0.22446297904782744,6.4,0,0
3961,shift,color,right,0,1,0.8878314,right,0.6196122671875,0.22446297904782744,6.4,0,0
3961,shift,shape,right,1,1,1.0479141,right,0.6196122671875,0.22446297904782744,6.4,0,0
3961,shift,color,left,1,1,0.823865,left,0.6196122671875,0.22446297904782744,6.4,0,0
3961,shift,shape,right,1,1,0.4878277,right,0.6196122671875,0.22446297904782744,6.4,0,0
3961,shift,shape,left,0,1,0.4559361,left,0.6196122671875,0.22446297904782744,6.4,0,0
3961,shift,color,right,1,1,0.807808,right,0.6196122671875,0.22446297904782744,6.4,0,0
3961,shift,shape,right,1,1,0.6958598,right,0.6196122671875,0.22446297904782744,6.4,0,0
3961,shift,shape,right,0,1,0.8078657,right,0.6196122671875,0.22446297904782744,6.4,0,0
3961,shift,shape,right,0,1,0.5198086,right,0.6196122671875,0.22446297904782744,6.4,0,0
3961,shift,color,left,1,1,0.4238524,left,0.6196122671875,0.22446297904782744,6.4,0,0
3961,shift,shape,left,1,1,1.0159288,left,0.6196122671875,0.22446297904782744,6.4,0,0
3961,shift,color,right,1,1,1.0158559,right,0.6196122671875,0.22446297904782744,6.4,0,0
3961,shift,color,right,0,1,0.8718339,right,0.6196122671875,0.22446297904782744,6.4,0,0
3961,shift,color,right,0,1,0.4558432,right,0.6196122671875,0.22446297904782744,6.4,0,0
3961,shift,shape,right,1,1,0.6318762,right,0.6196122671875,0.22446297904782744,6.4,0,0
3961,shift,color,left,1,1,0.7758792,left,0.6196122671875,0.22446297904782744,6.4,0,0
3961,shift,color,left,0,1,0.5998572,left,0.6196122671875,0.22446297904782744,6.4,0,0
3961,shift,shape,left,1,1,0.9358824,left,0.6196122671875,0.22446297904782744,6.4,0,0
3961,shift,color,right,1,1,0.3919617,right,0.6196122671875,0.22446297904782744,6.4,0,0
3961,shift,color,right,0,1,0.7437265,right,0.6196122671875,0.22446297904782744,6.4,0,0
3961,shift,shape,right,1,1,0.7118014,right,0.6196122671875,0.22446297904782744,6.4,0,0
3961,shift,shape,left,0,1,0.6478961,left,0.6196122671875,0.22446297904782744,6.4,0,0
3961,shift,color,left,1,1,1.0958451,left,0.6196122671875,0.22446297904782744,6.4,0,0
3961,shift,color,right,0,1,0.3918529,right,0.6196122671875,0.22446297904782744,6.4,0,0
3961,shift,shape,right,1,1,0.4879005,right,0.6196122671875,0.22446297904782744,6.4,0,0
3961,shift,shape,left,0,1,0.5359174,left,0.6196122671875,0.22446297904782744,6.4,0,0
3961,shift,color,left,1,1,0.9358259,left,0.6196122671875,0.22446297904782744,6.4,0,0
3961,shift,color,left,0,1,0.4878358,left,0.6196122671875,0.22446297904782744,6.4,0,0
3961,shift,shape,right,1,1,0.4879441,right,0.6196122671875,0.22446297904782744,6.4,0,0
3961,shift,color,right,1,1,0.3758094,right,0.6196122671875,0.22446297904782744,6.4,0,0
3961,shift,color,right,0,1,0.3918638,right,0.6196122671875,0.22446297904782744,6.4,0,0
3961,shift,color,right,0,1,0.3918928,right,0.6196122671875,0.22446297904782744,6.4,0,0
3962,color,color,right,0,1,0.3506425,right,0.33780784,0.056325275239268634,2,0,0
3962,color,color,left,0,1,0.5038832,left,0.33780784,0.056325275239268634,2,0,0
3962,color,color,right,0,1,0.3598444,right,0.33780784,0.056325275239268634,2,0,0
3962,color,color,left,0,1,0.3598447,left,0.33780784,0.056325275239268634,2,0,0
3962,color,color,left,0,1,0.3117921,left,0.33780784,0.056325275239268634,2,0,0
3962,color,color,right,0,1,0.3759235,right,0.33780784,0.056325275239268634,2,0,0
3962,color,color,right,0,1,0.2959242,right,0.33780784,0.056325275239268634,2,0,0
3962,color,color,right,0,1,0.3278598,right,0.33780784,0.056325275239268634,2,0,0
3962,color,color,left,0,1,0.3278231,left,0.33780784,0.056325275239268634,2,0,0
3962,color,color,right,0,1,0.3599197,right,0.33780784,0.056325275239268634,2,0,0
3962,color,color,left,0,1,0.2958342,left,0.33780784,0.056325275239268634,2,0,0
3962,color,color,right,0,1,0.2799233,right,0.33780784,0.056325275239268634,2,0,0
3962,color,color,right,0,0,0.2478019,left,0.33780784,0.056325275239268634,2,0,0
3962,color,color,left,0,1,0.2957836,left,0.33780784,0.056325275239268634,2,0,0
3962,color,color,right,0,1,0.4080133,right,0.33780784,0.056325275239268634,2,0,0
3962,color,color,left,0,1,0.2958531,left,0.33780784,0.056325275239268634,2,0,0
3962,color,color,left,0,1,0.3758548,left,0.33780784,0.056325275239268634,2,0,0
3962,color,color,right,0,1,0.3758455,right,0.33780784,0.056325275239268634,2,0,0
3962,color,color,left,0,1,0.2959378,left,0.33780784,0.056325275239268634,2,0,0
3962,color,color,left,0,1,0.3118521,left,0.33780784,0.056325275239268634,2,0,0
3962,shape,shape,left,0,0,0.4078386,right,0.360664875,0.10166718656519404,2,0,0
3962,shape,shape,left,0,0,0.3118189,right,0.360664875,0.10166718656519404,2,0,0
3962,shape,shape,right,0,0,0.3438803,left,0.360664875,0.10166718656519404,2,0,0
3962,shape,shape,left,0,0,0.3118587,right,0.360664875,0.10166718656519404,2,0,0
3962,shape,shape,left,0,0,0.3278696,right,0.360664875,0.10166718656519404,2,0,0
3962,shape,shape,right,0,0,0.2957766,left,0.360664875,0.10166718656519404,2,0,0
3962,shape,shape,right,0,0,0.3119468,left,0.360664875,0.10166718656519404,2,0,0
3962,shape,shape,right,0,0,0.3117827,left,0.360664875,0.10166718656519404,2,0,0
3962,shape,shape,left,0,0,0.263978,right,0.360664875,0.10166718656519404,2,0,0
3962,shape,shape,right,0,0,0.2477748,left,0.360664875,0.10166718656519404,2,0,0
3962,shape,shape,left,0,0,0.4079466,right,0.360664875,0.10166718656519404,2,0,0
3962,shape,shape,right,0,0,0.2798772,left,0.360664875,0.10166718656519404,2,0,0
3962,shape,shape,left,0,0,0.3438545,right,0.360664875,0.10166718656519404,2,0,0
3962,shape,shape,right,0,0,0.3758629,left,0.360664875,0.10166718656519404,2,0,0
3962,shape,shape,right,0,0,0.3438295,left,0.360664875,0.10166718656519404,2,0,0
3962,shape,shape,right,0,0,0.3919197,left,0.360664875,0.10166718656519404,2,0,0
3962,shape,shape,left,0,0,0.4078715,right,0.360664875,0.10166718656519404,2,0,0
3962,shape,shape,right,0,0,0.4558596,left,0.360664875,0.10166718656519404,2,0,0
3962,shape,shape,left,0,0,0.3438501,right,0.360664875,0.10166718656519404,2,0,0
3962,shape,shape,left,0,0,0.7279009,right,0.360664875,0.10166718656519404,2,1,0
3962,shift,color,left,1,1,0.4718413,left,0.6958580296875,0.27036803201727255,6.4,0,0
3962,shift,color,right,0,1,0.5678212,right,0.6958580296875,0.27036803201727255,6.4,0,0
3962,shift,shape,right,1,1,0.5198414,right,0.6958580296875,0.27036803201727255,6.4,0,0
3962,shift,color,left,1,1,0.9998649,left,0.6958580296875,0.27036803201727255,6.4,0,0
3962,shift,shape,right,1,1,0.9358193,right,0.6958580296875,0.27036803201727255,6.4,0,0
3962,shift,color,left,1,1,0.631945,left,0.6958580296875,0.27036803201727255,6.4,0,0
3962,shift,color,left,0,0,0.6317345,right,0.6958580296875,0.27036803201727255,6.4,0,0
3962,shift,color,left,0,1,1.6719478,left,0.6958580296875,0.27036803201727255,6.4,1,0
3962,shift,shape,right,1,1,0.9997418,right,0.6958580296875,0.27036803201727255,6.4,0,0
3962,shift,shape,left,0,1,1.4959775,left,0.6958580296875,0.27036803201727255,6.4,0,0
3962,shift,shape,right,0,1,0.6638469,right,0.6958580296875,0.27036803201727255,6.4,0,0
3962,shift,color,left,1,1,0.9838571,left,0.6958580296875,0.27036803201727255,6.4,0,0
3962,shift,shape,right,1,1,0.5037878,right,0.6958580296875,0.27036803201727255,6.4,0,0
3962,shift,shape,left,0,1,0.3759064,left,0.6958580296875,0.27036803201727255,6.4,0,0
3962,shift,shape,left,0,1,0.5519176,left,0.6958580296875,0.27036803201727255,6.4,0,0
3962,shift,color,right,1,1,1.2398737,right,0.6958580296875,0.27036803201727255,6.4,0,0
3962,shift,shape,left,1,1,0.5998006,left,0.6958580296875,0.27036803201727255,6.4,0,0
3962,shift,color,right,1,1,0.6478624,right,0.6958580296875,0.27036803201727255,6.4,0,0
3962,shift,color,right,0,1,0.727898,right,0.6958580296875,0.27036803201727255,6.4,0,0
3962,shift,shape,right,1,1,1.1918207,right,0.6958580296875,0.27036803201727255,6.4,0,0
3962,shift,color,right,1,0,0.7277882,left,0.6958580296875,0.27036803201727255,6.4,0,0
3962,shift,shape,right,1,1,0.6959647,right,0.6958580296875,0.27036803201727255,6.4,0,0
3962,shift,shape,right,0,1,0.8237602,right,0.6958580296875,0.27036803201727255,6.4,0,0
3962,shift,color,right,1,1,0.5519286,right,0.6958580296875,0.27036803201727255,6.4,0,0
3962,shift,color,left,0,1,0.4877646,left,0.6958580296875,0.27036803201727255,6.4,0,0
3962,shift,color,right,0,1,0.6160002,right,0.6958580296875,0.27036803201727255,6.4,0,0
3962,shift,shape,right,1,1,0.6317983,right,0.6958580296875,0.27036803201727255,6.4,0,0
3962,shift,color,right,1,0,0.6798695,left,0.6958580296875,0.27036803201727255,6.4,0,0
3962,shift,shape,right,1,1,0.6158412,right,0.6958580296875,0.27036803201727255,6.4,0,0
3962,shift,shape,left,0,1,0.5198833,left,0.6958580296875,0.27036803201727255,6.4,0,0
3962,shift,shape,left,0,1,0.4718554,left,0.6958580296875,0.27036803201727255,6.4,0,0
3962,shift,color,left,1,1,0.79182,left,0.6958580296875,0.27036803201727255,6.4,0,0
3962,shift,color,left,0,1,0.5038961,left,0.6958580296875,0.27036803201727255,6.4,0,0
3962,shift,color,left,0,1,0.3919038,left,0.6958580296875,0.27036803201727255,6.4,0,0
3962,shift,color,right,0,1,0.5838626,right,0.6958580296875,0.27036803201727255,6.4,0,0
3962,shift,shape,left,1,1,0.487747,left,0.6958580296875,0.27036803201727255,6.4,0,0
3962,shift,shape,left,0,1,1.063971,left,0.6958580296875,0.27036803201727255,6.4,0,0
3962,shift,color,left,1,1,0.807884,left,0.6958580296875,0.27036803201727255,6.4,0,0
3962,shift,shape,left,1,1,0.8718079,left,0.6958580296875,0.27036803201727255,6.4,0,0
3962,shift,shape,left,0,1,0.4878868,left,0.6958580296875,0.27036803201727255,6.4,0,0
3962,shift,shape,right,0,1,0.4078537,right,0.6958580296875,0.27036803201727255,6.4,0,0
3962,shift,shape,left,0,1,0.4078861,left,0.6958580296875,0.27036803201727255,6.4,0,0
3962,shift,color,right,1,1,0.8877666,right,0.6958580296875,0.27036803201727255,6.4,0,0
3962,shift,color,right,0,1,0.4719727,right,0.6958580296875,0.27036803201727255,6.4,0,0
3962,shift,color,right,0,1,0.3917874,right,0.6958580296875,0.27036803201727255,6.4,0,0
3962,shift,shape,left,1,1,0.6479459,left,0.6958580296875,0.27036803201727255,6.4,0,0
3962,shift,shape,left,0,1,0.8237468,left,0.6958580296875,0.27036803201727255,6.4,0,0
3962,shift,shape,left,0,1,0.7278527,left,0.6958580296875,0.27036803201727255,6.4,0,0
3962,shift,shape,right,0,1,0.391929,right,0.6958580296875,0.27036803201727255,6.4,0,0
3962,shift,color,left,1,1,0.4718527,left,0.6958580296875,0.27036803201727255,6.4,0,0
3962,shift,shape,left,1,1,0.6319177,left,0.6958580296875,0.27036803201727255,6.4,0,0
3962,shift,color,right,1,1,0.50373540000000006,right,0.6958580296875,0.27036803201727255,6.4,0,0
3962,shift,color,right,0,1,0.6958607,right,0.6958580296875,0.27036803201727255,6.4,0,0
3962,shift,color,left,0,1,1.1439646,left,0.6958580296875,0.27036803201727255,6.4,0,0
3962,shift,shape,right,1,1,0.4718175,right,0.6958580296875,0.27036803201727255,6.4,0,0
3962,shift,shape,left,0,1,0.8399245,left,0.6958580296875,0.27036803201727255,6.4,0,0
3962,shift,shape,right,0,1,0.5678224,right,0.6958580296875,0.27036803201727255,6.4,0,0
3962,shift,color,right,1,1,0.3759103,right,0.6958580296875,0.27036803201727255,6.4,0,0
3962,shift,color,left,0,1,0.8558221,left,0.6958580296875,0.27036803201727255,6.4,0,0
3962,shift,color,left,0,1,1.1758206,left,0.6958580296875,0.27036803201727255,6.4,0,0
3962,shift,shape,right,1,1,0.5518567,right,0.6958580296875,0.27036803201727255,6.4,0,0
3962,shift,color,right,1,1,0.7759017,right,0.6958580296875,0.27036803201727255,6.4,0,0
3962,shift,color,left,0,1,0.5198481,left,0.6958580296875,0.27036803201727255,6.4,0,0
3962,shift,shape,right,1,1,0.5677787,right,0.6958580296875,0.27036803201727255,6.4,0,0
3966,shape,shape,right,0,1,0.4465978,right,0.442599915,0.03961118984213631,2,0,0
3966,shape,shape,left,0,1,0.5198752,left,0.442599915,0.03961118984213631,2,0,0
3966,shape,shape,right,0,1,0.4558547,right,0.442599915,0.03961118984213631,2,0,0
3966,shape,shape,left,0,1,0.4238411,left,0.442599915,0.03961118984213631,2,0,0
3966,shape,shape,right,0,1,0.4718015,right,0.442599915,0.03961118984213631,2,0,0
3966,shape,shape,right,0,1,0.3759622,right,0.442599915,0.03961118984213631,2,0,0
3966,shape,shape,left,0,1,0.4878852,left,0.442599915,0.03961118984213631,2,0,0
3966,shape,shape,right,0,1,0.455839,right,0.442599915,0.03961118984213631,2,0,0
3966,shape,shape,left,0,1,0.4559916,left,0.442599915,0.03961118984213631,2,0,0
3966,shape,shape,left,0,1,0.5036733,left,0.442599915,0.03961118984213631,2,0,0
3966,shape,shape,right,0,1,0.3918478,right,0.442599915,0.03961118984213631,2,0,0
3966,shape,shape,left,0,1,0.4239333,left,0.442599915,0.03961118984213631,2,0,0
3966,shape,shape,left,0,1,0.4237944,left,0.442599915,0.03961118984213631,2,0,0
3966,shape,shape,left,0,1,0.4398908,left,0.442599915,0.03961118984213631,2,0,0
3966,shape,shape,right,0,1,0.3598948,right,0.442599915,0.03961118984213631,2,0,0
3966,shape,shape,left,0,1,0.4558196,left,0.442599915,0.03961118984213631,2,0,0
3966,shape,shape,left,0,1,0.4559009,left,0.442599915,0.03961118984213631,2,0,0
3966,shape,shape,right,0,1,0.4078981,right,0.442599915,0.03961118984213631,2,0,0
3966,shape,shape,right,0,1,0.4397284,right,0.442599915,0.03961118984213631,2,0,0
3966,shape,shape,right,0,1,0.4559686,right,0.442599915,0.03961118984213631,2,0,0
3966,color,color,right,0,1,0.6478424,right,0.422260945,0.10408123031393608,2,0,0
3966,color,color,left,0,1,0.6798951,left,0.422260945,0.10408123031393608,2,0,0
3966,color,color,right,0,1,0.3758506,right,0.422260945,0.10408123031393608,2,0,0
3966,color,color,left,0,1,0.4718506,left,0.422260945,0.10408123031393608,2,0,0
3966,color,color,right,0,1,0.4078497,right,0.422260945,0.10408123031393608,2,0,0
3966,color,color,left,0,1,0.4078107,left,0.422260945,0.10408123031393608,2,0,0
3966,color,color,right,0,1,0.6159841,right,0.422260945,0.10408123031393608,2,0,0
3966,color,color,right,0,1,0.3918454,right,0.422260945,0.10408123031393608,2,0,0
3966,color,color,left,0,1,0.3438589,left,0.422260945,0.10408123031393608,2,0,0
3966,color,color,left,0,1,0.3599105,left,0.422260945,0.10408123031393608,2,0,0
3966,color,color,right,0,1,0.4078351,right,0.422260945,0.10408123031393608,2,0,0
3966,color,color,left,0,1,0.407817,left,0.422260945,0.10408123031393608,2,0,0
3966,color,color,right,0,1,0.3917922,right,0.422260945,0.10408123031393608,2,0,0
3966,color,color,left,0,1,0.3599668,left,0.422260945,0.10408123031393608,2,0,0
3966,color,color,left,0,1,0.359878,left,0.422260945,0.10408123031393608,2,0,0
3966,color,color,right,0,1,0.31187550000000003,right,0.422260945,0.10408123031393608,2,0,0
3966,color,color,left,0,1,0.327851,left,0.422260945,0.10408123031393608,2,0,0
3966,color,color,right,0,1,0.4238541,right,0.422260945,0.10408123031393608,2,0,0
3966,color,color,left,0,1,0.3918654,left,0.422260945,0.10408123031393608,2,0,0
3966,color,color,right,0,1,0.3597858,right,0.422260945,0.10408123031393608,2,0,0
3966,shift,shape,left,1,1,0.4719831,left,0.5943653453125,0.2206599675815624,6.4,0,0
3966,shift,shape,right,0,0,0.4398574,left,0.5943653453125,0.2206599675815624,6.4,0,0
3966,shift,shape,left,0,0,0.6318554,right,0.5943653453125,0.2206599675815624,6.4,0,0
3966,shift,color,right,1,1,1.5438793,right,0.5943653453125,0.2206599675815624,6.4,1,0
3966,shift,shape,left,1,1,0.9678548,left,0.5943653453125,0.2206599675815624,6.4,0,0
3966,shift,color,left,1,1,0.7277726,left,0.5943653453125,0.2206599675815624,6.4,0,0
3966,shift,shape,right,1,1,0.7759695,right,0.5943653453125,0.2206599675815624,6.4,0,0
3966,shift,shape,right,0,1,0.64781010000000006,right,0.5943653453125,0.2206599675815624,6.4,0,0
3966,shift,color,left,1,1,0.59986,left,0.5943653453125,0.2206599675815624,6.4,0,0
3966,shift,color,left,0,1,0.711868,left,0.5943653453125,0.2206599675815624,6.4,0,0
3966,shift,shape,left,1,1,0.3599089,left,0.5943653453125,0.2206599675815624,6.4,0,0
3966,shift,color,right,1,1,0.4077826,right,0.5943653453125,0.2206599675815624,6.4,0,0
3966,shift,shape,left,1,1,0.4399096,left,0.5943653453125,0.2206599675815624,6.4,0,0
3966,shift,color,right,1,1,0.903998,right,0.5943653453125,0.2206599675815624,6.4,0,0
3966,shift,color,right,0,1,0.4716213,right,0.5943653453125,0.2206599675815624,6.4,0,0
3966,shift,shape,right,1,1,0.5039354,right,0.5943653453125,0.2206599675815624,6.4,0,0
3966,shift,color,left,1,1,0.4397939,left,0.5943653453125,0.2206599675815624,6.4,0,0
3966,shift,color,right,0,1,0.4398855,right,0.5943653453125,0.2206599675815624,6.4,0,0
3966,shift,shape,right,1,1,0.4238957,right,0.5943653453125,0.2206599675815624,6.4,0,0
3966,shift,color,right,1,1,0.4879145,right,0.5943653453125,0.2206599675815624,6.4,0,0
3966,shift,color,left,0,1,0.4878698,left,0.5943653453125,0.2206599675815624,6.4,0,0
3966,shift,color,right,0,1,0.6957738,right,0.5943653453125,0.2206599675815624,6.4,0,0
3966,shift,shape,left,1,1,0.3919933,left,0.5943653453125,0.2206599675815624,6.4,0,0
3966,shift,shape,right,0,1,0.3438375,right,0.5943653453125,0.2206599675815624,6.4,0,0
3966,shift,shape,right,0,1,0.4398921,right,0.5943653453125,0.2206599675815624,6.4,0,0
3966,shift,color,right,1,0,0.4878842,left,0.5943653453125,0.2206599675815624,6.4,0,0
3966,shift,shape,left,1,1,1.0639688,left,0.5943653453125,0.2206599675815624,6.4,0,0
3966,shift,color,right,1,1,0.5357084,right,0.5943653453125,0.2206599675815624,6.4,0,0
3966,shift,color,right,0,1,0.9678231,right,0.5943653453125,0.2206599675815624,6.4,0,0
3966,shift,shape,right,1,1,0.8558611,right,0.5943653453125,0.2206599675815624,6.4,0,0
3966,shift,shape,left,0,1,0.4238753,left,0.5943653453125,0.2206599675815624,6.4,0,0
3966,shift,shape,left,0,1,0.3758942,left,0.5943653453125,0.2206599675815624,6.4,0,0
3966,shift,color,left,1,1,0.4238578,left,0.5943653453125,0.2206599675815624,6.4,0,0
3966,shift,color,left,0,1,0.4398499,left,0.5943653453125,0.2206599675815624,6.4,0,0
3966,shift,shape,right,1,1,0.567859,right,0.5943653453125,0.2206599675815624,6.4,0,0
3966,shift,shape,left,0,1,0.4398961,left,0.5943653453125,0.2206599675815624,6.4,0,0
3966,shift,shape,right,0,1,0.5038663,right,0.5943653453125,0.2206599675815624,6.4,0,0
3966,shift,color,left,1,1,0.6958378,left,0.5943653453125,0.2206599675815624,6.4,0,0
3966,shift,shape,right,1,1,0.5199109,right,0.5943653453125,0.2206599675815624,6.4,0,0
3966,shift,shape,left,0,1,0.503789,left,0.5943653453125,0.2206599675815624,6.4,0,0
3966,shift,color,left,1,1,0.5199389,left,0.5943653453125,0.2206599675815624,6.4,0,0
3966,shift,color,right,0,1,0.7278163,right,0.5943653453125,0.2206599675815624,6.4,0,0
3966,shift,color,left,0,1,0.5518781,left,0.5943653453125,0.2206599675815624,6.4,0,0
3966,shift,shape,right,1,1,0.4078399,right,0.5943653453125,0.2206599675815624,6.4,0,0
3966,shift,color,right,1,1,0.4718347,right,0.5943653453125,0.2206599675815624,6.4,0,0
3966,shift,color,left,0,1,0.695915,left,0.5943653453125,0.2206599675815624,6.4,0,0
3966,shift,shape,right,1,1,0.4077588,right,0.5943653453125,0.2206599675815624,6.4,0,0
3966,shift,shape,left,0,1,0.4079808,left,0.5943653453125,0.2206599675815624,6.4,0,0
3966,shift,color,left,1,1,0.6478187,left,0.5943653453125,0.2206599675815624,6.4,0,0
3966,shift,shape,right,1,1,0.4399075,right,0.5943653453125,0.2206599675815624,6.4,0,0
3966,shift,color,left,1,1,0.6478775,left,0.5943653453125,0.2206599675815624,6.4,0,0
3966,shift,shape,left,1,1,0.6958577,left,0.5943653453125,0.2206599675815624,6.4,0,0
3966,shift,color,left,1,1,0.9198475,left,0.5943653453125,0.2206599675815624,6.4,0,0
3966,shift,color,right,0,1,1.0638401,right,0.5943653453125,0.2206599675815624,6.4,0,0
3966,shift,color,left,0,1,0.6638523,left,0.5943653453125,0.2206599675815624,6.4,0,0
3966,shift,shape,right,1,1,0.5677859,right,0.5943653453125,0.2206599675815624,6.4,0,0
3966,shift,shape,left,0,1,1.0158769,left,0.5943653453125,0.2206599675815624,6.4,0,0
3966,shift,shape,left,0,1,0.4719781,left,0.5943653453125,0.2206599675815624,6.4,0,0
3966,shift,color,right,1,1,0.4398772,right,0.5943653453125,0.2206599675815624,6.4,0,0
3966,shift,color,left,0,1,0.4718436,left,0.5943653453125,0.2206599675815624,6.4,0,0
3966,shift,shape,left,1,1,0.6638238,left,0.5943653453125,0.2206599675815624,6.4,0,0
3966,shift,shape,right,0,1,0.3759105,right,0.5943653453125,0.2206599675815624,6.4,0,0
3966,shift,color,right,1,0,0.5358739,left,0.5943653453125,0.2206599675815624,6.4,0,0
3966,shift,color,right,0,1,0.6638444,right,0.5943653453125,0.2206599675815624,6.4,0,0
3968,shape,shape,left,0,1,0.431133,left,0.41302719,0.06759655636861751,2,0,0
3968,shape,shape,left,0,1,0.3758299,left,0.41302719,0.06759655636861751,2,0,0
3968,shape,shape,right,0,1,0.3919767,right,0.41302719,0.06759655636861751,2,0,0
3968,shape,shape,left,0,1,0.3437851,left,0.41302719,0.06759655636861751,2,0,0
3968,shape,shape,right,0,1,0.5358569,right,0.41302719,0.06759655636861751,2,0,0
3968,shape,shape,right,0,1,0.5998582,right,0.41302719,0.06759655636861751,2,0,0
3968,shape,shape,left,0,1,0.519873,left,0.41302719,0.06759655636861751,2,0,0
3968,shape,shape,right,0,1,0.4238443,right,0.41302719,0.06759655636861751,2,0,0
3968,shape,shape,left,0,1,0.3918739,left,0.41302719,0.06759655636861751,2,0,0
3968,shape,shape,right,0,1,0.423816,right,0.41302719,0.06759655636861751,2,0,0
3968,shape,shape,left,0,1,0.4238837,left,0.41302719,0.06759655636861751,2,0,0
3968,shape,shape,left,0,1,0.3758891,left,0.41302719,0.06759655636861751,2,0,0
3968,shape,shape,right,0,1,0.4078499,right,0.41302719,0.06759655636861751,2,0,0
3968,shape,shape,left,0,1,0.3758863,left,0.41302719,0.06759655636861751,2,0,0
3968,shape,shape,left,0,1,0.3438277,left,0.41302719,0.06759655636861751,2,0,0
3968,shape,shape,right,0,1,0.3759098,right,0.41302719,0.06759655636861751,2,0,0
3968,shape,shape,right,0,1,0.3277352,right,0.41302719,0.06759655636861751,2,0,0
3968,shape,shape,right,0,1,0.4079969,right,0.41302719,0.06759655636861751,2,0,0
3968,shape,shape,right,0,1,0.3758613,right,0.41302719,0.06759655636861751,2,0,0
3968,shape,shape,left,0,1,0.4078569,left,0.41302719,0.06759655636861751,2,0,0
3968,color,color,right,0,1,0.5518138,right,0.394264535,0.11159609076462111,2,0,0
3968,color,color,right,0,1,0.3279164,right,0.394264535,0.11159609076462111,2,0,0
3968,color,color,left,0,1,0.423811,left,0.394264535,0.11159609076462111,2,0,0
3968,color,color,right,0,1,0.3599482,right,0.394264535,0.11159609076462111,2,0,0
3968,color,color,right,0,0,0.6318528,left,0.394264535,0.11159609076462111,2,0,0
3968,color,color,left,0,1,0.3438674,left,0.394264535,0.11159609076462111,2,0,0
3968,color,color,left,0,1,0.7118515,left,0.394264535,0.11159609076462111,2,0,0
3968,color,color,right,0,1,0.3758849,right,0.394264535,0.11159609076462111,2,0,0
3968,color,color,left,0,1,0.4078524,left,0.394264535,0.11159609076462111,2,0,0
3968,color,color,right,0,1,0.3598908,right,0.394264535,0.11159609076462111,2,0,0
3968,color,color,left,0,1,0.3598586,left,0.394264535,0.11159609076462111,2,0,0
3968,color,color,right,0,1,0.3597639,right,0.394264535,0.11159609076462111,2,0,0
3968,color,color,left,0,1,0.2959771,left,0.394264535,0.11159609076462111,2,0,0
3968,color,color,left,0,1,0.3758126,left,0.394264535,0.11159609076462111,2,0,0
3968,color,color,right,0,1,0.3759018,right,0.394264535,0.11159609076462111,2,0,0
3968,color,color,right,0,1,0.3598719,right,0.394264535,0.11159609076462111,2,0,0
3968,color,color,right,0,1,0.3758629,right,0.394264535,0.11159609076462111,2,0,0
3968,color,color,left,0,1,0.2800105,left,0.394264535,0.11159609076462111,2,0,0
3968,color,color,left,0,1,0.2958227,left,0.394264535,0.11159609076462111,2,0,0
3968,color,color,left,0,1,0.3117195,left,0.394264535,0.11159609076462111,2,0,0
3968,shift,shape,right,1,0,0.295913,left,0.4738639296875,0.14221766968215574,6.4,0,0
3968,shift,color,left,1,1,0.3918903,left,0.4738639296875,0.14221766968215574,6.4,0,0
3968,shift,shape,left,1,0,0.4077894,right,0.4738639296875,0.14221766968215574,6.4,0,0
3968,shift,shape,right,0,0,0.5839064,left,0.4738639296875,0.14221766968215574,6.4,0,0
3968,shift,shape,left,0,1,0.9679147,left,0.4738639296875,0.14221766968215574,6.4,1,0
3968,shift,shape,left,0,1,0.4717965,left,0.4738639296875,0.14221766968215574,6.4,0,0
3968,shift,color,right,1,1,0.5198548,right,0.4738639296875,0.14221766968215574,6.4,0,0
3968,shift,shape,right,1,1,0.5199021,right,0.4738639296875,0.14221766968215574,6.4,0,0
3968,shift,shape,right,0,1,0.43985,right,0.4738639296875,0.14221766968215574,6.4,0,0
3968,shift,shape,right,0,1,0.4878661,right,0.4738639296875,0.14221766968215574,6.4,0,0
3968,shift,color,left,1,1,0.3758481,left,0.4738639296875,0.14221766968215574,6.4,0,0
3968,shift,color,right,0,1,0.3439124,right,0.4738639296875,0.14221766968215574,6.4,0,0
3968,shift,color,left,0,1,0.343763,left,0.4738639296875,0.14221766968215574,6.4,0,0
3968,shift,color,left,0,1,0.3439296,left,0.4738639296875,0.14221766968215574,6.4,0,0
3968,shift,shape,right,1,1,0.4558546,right,0.4738639296875,0.14221766968215574,6.4,0,0
3968,shift,shape,right,0,1,0.4398552,right,0.4738639296875,0.14221766968215574,6.4,0,0
3968,shift,shape,right,0,1,0.4238757,right,0.4738639296875,0.14221766968215574,6.4,0,0
3968,shift,color,right,1,1,0.4078073,right,0.4738639296875,0.14221766968215574,6.4,0,0
3968,shift,shape,left,1,1,0.5999483,left,0.4738639296875,0.14221766968215574,6.4,0,0
3968,shift,shape,left,0,1,0.327793,left,0.4738639296875,0.14221766968215574,6.4,0,0
3968,shift,shape,left,0,1,0.3438944,left,0.4738639296875,0.14221766968215574,6.4,0,0
3968,shift,color,left,1,1,0.3118651,left,0.4738639296875,0.14221766968215574,6.4,0,0
3968,shift,shape,left,1,0,0.631921,right,0.4738639296875,0.14221766968215574,6.4,0,0
3968,shift,shape,left,0,1,0.4718293,left,0.4738639296875,0.14221766968215574,6.4,0,0
3968,shift,color,right,1,1,0.4078659,right,0.4738639296875,0.14221766968215574,6.4,0,0
3968,shift,color,right,0,1,0.4078112,right,0.4738639296875,0.14221766968215574,6.4,0,0
3968,shift,color,left,0,1,0.4079038,left,0.4738639296875,0.14221766968215574,6.4,0,0
3968,shift,color,left,0,1,0.3919038,left,0.4738639296875,0.14221766968215574,6.4,0,0
3968,shift,shape,left,1,1,0.4398509,left,0.4738639296875,0.14221766968215574,6.4,0,0
3968,shift,shape,right,0,1,0.4718542,right,0.4738639296875,0.14221766968215574,6.4,0,0
3968,shift,shape,right,0,1,0.3438636,right,0.4738639296875,0.14221766968215574,6.4,0,0
3968,shift,color,right,1,0,0.4398152,left,0.4738639296875,0.14221766968215574,6.4,0,0
3968,shift,shape,right,1,1,0.4879202,right,0.4738639296875,0.14221766968215574,6.4,0,0
3968,shift,shape,left,0,1,0.8558086,left,0.4738639296875,0.14221766968215574,6.4,0,0
3968,shift,color,right,1,1,0.4398054,right,0.4738639296875,0.14221766968215574,6.4,0,0
3968,shift,shape,right,1,1,0.935936,right,0.4738639296875,0.14221766968215574,6.4,1,0
3968,shift,color,right,1,1,0.4879601,right,0.4738639296875,0.14221766968215574,6.4,0,0
3968,shift,color,left,0,1,0.4557737,left,0.4738639296875,0.14221766968215574,6.4,0,0
3968,shift,shape,right,1,1,0.4718578,right,0.4738639296875,0.14221766968215574,6.4,0,0
3968,shift,color,left,1,1,0.5678736,left,0.4738639296875,0.14221766968215574,6.4,0,0
3968,shift,color,right,0,1,0.5518511,right,0.4738639296875,0.14221766968215574,6.4,0,0
3968,shift,color,left,0,1,0.695855,left,0.4738639296875,0.14221766968215574,6.4,0,0
3968,shift,shape,left,1,1,0.8558231,left,0.4738639296875,0.14221766968215574,6.4,0,0
3968,shift,shape,right,0,1,0.4078638,right,0.4738639296875,0.14221766968215574,6.4,0,0
3968,shift,color,right,1,1,0.359912,right,0.4738639296875,0.14221766968215574,6.4,0,0
3968,shift,color,left,0,1,0.3918128,left,0.4738639296875,0.14221766968215574,6.4,0,0
3968,shift,color,left,0,1,0.3758967,left,0.4738639296875,0.14221766968215574,6.4,0,0
3968,shift,shape,right,1,1,0.3918913,right,0.4738639296875,0.14221766968215574,6.4,0,0
3968,shift,shape,right,0,1,0.3117179,right,0.4738639296875,0.14221766968215574,6.4,0,0
3968,shift,color,right,1,1,0.3279291,right,0.4738639296875,0.14221766968215574,6.4,0,0
3968,shift,shape,left,1,1,0.3919139,left,0.4738639296875,0.14221766968215574,6.4,0,0
3968,shift,color,right,1,1,0.6478833,right,0.4738639296875,0.14221766968215574,6.4,0,0
3968,shift,shape,left,1,0,0.471867,right,0.4738639296875,0.14221766968215574,6.4,0,0
3968,shift,color,left,1,1,0.5518364,left,0.4738639296875,0.14221766968215574,6.4,0,0
3968,shift,color,left,0,1,0.5198469,left,0.4738639296875,0.14221766968215574,6.4,0,0
3968,shift,color,right,0,1,0.5358955,right,0.4738639296875,0.14221766968215574,6.4,0,0
3968,shift,color,right,0,1,0.4397712,right,0.4738639296875,0.14221766968215574,6.4,0,0
3968,shift,shape,left,1,1,0.3918974,left,0.4738639296875,0.14221766968215574,6.4,0,0
3968,shift,color,left,1,1,0.4879362,left,0.4738639296875,0.14221766968215574,6.4,0,0
3968,shift,color,left,0,1,0.4078692,left,0.4738639296875,0.14221766968215574,6.4,0,0
3968,shift,color,right,0,1,0.6158504,right,0.4738639296875,0.14221766968215574,6.4,0,0
3968,shift,shape,left,1,1,0.4237703,left,0.4738639296875,0.14221766968215574,6.4,0,0
3968,shift,shape,left,0,1,0.3599192,left,0.4738639296875,0.14221766968215574,6.4,0,0
3968,shift,color,right,1,1,0.4878975,right,0.4738639296875,0.14221766968215574,6.4,0,0
3971,color,color,left,0,1,0.3820693,left,0.44097377,0.1699674155504739,2,0,0
3971,color,color,right,0,1,0.3598263,right,0.44097377,0.1699674155504739,2,0,0
3971,color,color,right,0,1,0.5519177,right,0.44097377,0.1699674155504739,2,0,0
3971,color,color,left,0,1,0.391855,left,0.44097377,0.1699674155504739,2,0,0
3971,color,color,right,0,1,0.3918493,right,0.44097377,0.1699674155504739,2,0,0
3971,color,color,left,0,1,0.3758796,left,0.44097377,0.1699674155504739,2,0,0
3971,color,color,left,0,1,0.4238539,left,0.44097377,0.1699674155504739,2,0,0
3971,color,color,right,0,1,0.5198685,right,0.44097377,0.1699674155504739,2,0,0
3971,color,color,right,0,1,0.4077689,right,0.44097377,0.1699674155504739,2,0,0
3971,color,color,left,0,1,0.3759563,left,0.44097377,0.1699674155504739,2,0,0
3971,color,color,right,0,1,0.4078523,right,0.44097377,0.1699674155504739,2,0,0
3971,color,color,left,0,1,0.3278233,left,0.44097377,0.1699674155504739,2,0,0
3971,color,color,right,0,1,0.3598974,right,0.44097377,0.1699674155504739,2,0,0
3971,color,color,left,0,1,0.4078651,left,0.44097377,0.1699674155504739,2,0,0
3971,color,color,right,0,1,0.4237641,right,0.44097377,0.1699674155504739,2,0,0
3971,color,color,right,0,1,0.4239544,right,0.44097377,0.1699674155504739,2,0,0
3971,color,color,left,0,1,0.4078617,left,0.44097377,0.1699674155504739,2,0,0
3971,color,color,left,0,1,1.1278798,left,0.44097377,0.1699674155504739,2,1,0
3971,color,color,right,0,1,0.3438806,right,0.44097377,0.1699674155504739,2,0,0
3971,color,color,left,0,1,0.4078519,left,0.44097377,0.1699674155504739,2,0,0
3971,shape,shape,right,0,1,0.4878096,right,0.5566625,0.4870125816146448,2,0,0
3971,shape,shape,right,0,1,0.4398783,right,0.5566625,0.4870125816146448,2,0,0
3971,shape,shape,left,0,1,0.4397788,left,0.5566625,0.4870125816146448,2,0,0
3971,shape,shape,right,0,1,0.3599932,right,0.5566625,0.4870125816146448,2,0,0
3971,shape,shape,left,0,1,0.471743,left,0.5566625,0.4870125816146448,2,0,0
3971,shape,shape,left,0,1,0.4399662,left,0.5566625,0.4870125816146448,2,0,0
3971,shape,shape,right,0,1,0.3598751,right,0.5566625,0.4870125816146448,2,0,0
3971,shape,shape,right,0,1,0.4238348,right,0.5566625,0.4870125816146448,2,0,0
3971,shape,shape,left,0,1,0.4078339,left,0.5566625,0.4870125816146448,2,0,0
3971,shape,shape,left,0,1,0.4558309,left,0.5566625,0.4870125816146448,2,0,0
3971,shape,shape,right,0,1,0.5359337,right,0.5566625,0.4870125816146448,2,0,0
3971,shape,shape,right,0,1,0.5038348,right,0.5566625,0.4870125816146448,2,0,0
3971,shape,shape,right,0,1,0.4719045,right,0.5566625,0.4870125816146448,2,0,0
3971,shape,shape,right,0,1,0.4879436,right,0.5566625,0.4870125816146448,2,0,0
3971,shape,shape,left,0,1,0.4557823,left,0.5566625,0.4870125816146448,2,0,0
3971,shape,shape,left,0,1,2.6158148,left,0.5566625,0.4870125816146448,2,1,0
3971,shape,shape,left,0,1,0.4718562,left,0.5566625,0.4870125816146448,2,0,0
3971,shape,shape,right,0,1,0.3598801,right,0.5566625,0.4870125816146448,2,0,0
3971,shape,shape,left,0,1,0.4877729,left,0.5566625,0.4870125816146448,2,0,0
3971,shape,shape,left,0,1,0.4559833,left,0.5566625,0.4870125816146448,2,0,0
3971,shift,shape,right,0,1,0.3598436,right,0.7456093765625,0.6352102316955819,6.4,0,0
3971,shift,color,left,1,0,0.647865,right,0.7456093765625,0.6352102316955819,6.4,0,0
3971,shift,shape,left,1,1,0.9678679,left,0.7456093765625,0.6352102316955819,6.4,0,0
3971,shift,color,right,1,1,0.5998677,right,0.7456093765625,0.6352102316955819,6.4,0,0
3971,shift,shape,right,1,1,0.8718383,right,0.7456093765625,0.6352102316955819,6.4,0,0
3971,shift,shape,right,0,1,0.4240185,right,0.7456093765625,0.6352102316955819,6.4,0,0
3971,shift,shape,left,0,1,0.439612,left,0.7456093765625,0.6352102316955819,6.4,0,0
3971,shift,shape,right,0,1,0.4558931,right,0.7456093765625,0.6352102316955819,6.4,0,0
3971,shift,color,right,1,1,0.487947,right,0.7456093765625,0.6352102316955819,6.4,0,0
3971,shift,shape,left,1,1,0.39182670000000003,left,0.7456093765625,0.6352102316955819,6.4,0,0
3971,shift,color,right,1,1,0.391881,right,0.7456093765625,0.6352102316955819,6.4,0,0
3971,shift,color,right,0,1,0.375737,right,0.7456093765625,0.6352102316955819,6.4,0,0
3971,shift,shape,right,1,1,0.7439822,right,0.7456093765625,0.6352102316955819,6.4,0,0
3971,shift,color,right,1,1,0.7118616,right,0.7456093765625,0.6352102316955819,6.4,0,0
3971,shift,shape,right,1,1,0.4718352,right,0.7456093765625,0.6352102316955819,6.4,0,0
3971,shift,color,left,1,0,0.5998413,right,0.7456093765625,0.6352102316955819,6.4,0,0
3971,shift,color,left,0,1,0.5839409,left,0.7456093765625,0.6352102316955819,6.4,0,0
3971,shift,color,right,0,1,0.3598518,right,0.7456093765625,0.6352102316955819,6.4,0,0
3971,shift,color,left,0,1,1.0158552,left,0.7456093765625,0.6352102316955819,6.4,0,0
3971,shift,shape,left,1,0,0.6638542,right,0.7456093765625,0.6352102316955819,6.4,0,0
3971,shift,shape,right,0,1,0.48789130000000003,right,0.7456093765625,0.6352102316955819,6.4,0,0
3971,shift,shape,left,0,1,0.6798166,left,0.7456093765625,0.6352102316955819,6.4,0,0
3971,shift,shape,left,0,1,0.7598821,left,0.7456093765625,0.6352102316955819,6.4,0,0
3971,shift,color,left,1,1,0.7278436,left,0.7456093765625,0.6352102316955819,6.4,0,0
3971,shift,color,left,0,1,0.6638565,left,0.7456093765625,0.6352102316955819,6.4,0,0
3971,shift,shape,right,1,1,0.5678447,right,0.7456093765625,0.6352102316955819,6.4,0,0
3971,shift,shape,right,0,1,0.5198064,right,0.7456093765625,0.6352102316955819,6.4,0,0
3971,shift,color,left,1,1,0.5198684,left,0.7456093765625,0.6352102316955819,6.4,0,0
3971,shift,color,right,0,1,0.407891,right,0.7456093765625,0.6352102316955819,6.4,0,0
3971,shift,color,right,0,1,0.583886,right,0.7456093765625,0.6352102316955819,6.4,0,0
3971,shift,shape,left,1,1,0.4718878,left,0.7456093765625,0.6352102316955819,6.4,0,0
3971,shift,color,right,1,1,0.4877319,right,0.7456093765625,0.6352102316955819,6.4,0,0
3971,shift,shape,left,1,1,0.4559042,left,0.7456093765625,0.6352102316955819,6.4,0,0
3971,shift,shape,right,0,1,1.3199322,right,0.7456093765625,0.6352102316955819,6.4,0,0
3971,shift,color,left,1,1,0.6957932,left,0.7456093765625,0.6352102316955819,6.4,0,0
3971,shift,color,left,0,1,2.0399291,left,0.7456093765625,0.6352102316955819,6.4,0,0
3971,shift,color,left,0,1,0.6318401,left,0.7456093765625,0.6352102316955819,6.4,0,0
3971,shift,color,left,0,1,0.5038021,left,0.7456093765625,0.6352102316955819,6.4,0,0
3971,shift,shape,left,1,1,0.8719127,left,0.7456093765625,0.6352102316955819,6.4,0,0
3971,shift,color,right,1,1,2.0718794,right,0.7456093765625,0.6352102316955819,6.4,0,0
3971,shift,color,right,0,1,0.6637315,right,0.7456093765625,0.6352102316955819,6.4,0,0
3971,shift,shape,left,1,1,0.8079631,left,0.7456093765625,0.6352102316955819,6.4,0,0
3971,shift,shape,left,0,1,0.7758129,left,0.7456093765625,0.6352102316955819,6.4,0,0
3971,shift,shape,left,0,1,0.6318469,left,0.7456093765625,0.6352102316955819,6.4,0,0
3971,shift,color,left,1,1,1.5759394,left,0.7456093765625,0.6352102316955819,6.4,0,0
3971,shift,shape,right,1,1,0.5678736,right,0.7456093765625,0.6352102316955819,6.4,0,0
3971,shift,shape,left,0,1,0.4237247,left,0.7456093765625,0.6352102316955819,6.4,0,0
3971,shift,color,right,1,1,0.3758607,right,0.7456093765625,0.6352102316955819,6.4,0,0
3971,shift,color,left,0,1,0.6639086,left,0.7456093765625,0.6352102316955819,6.4,0,0
3971,shift,color,right,0,1,0.871907,right,0.7456093765625,0.6352102316955819,6.4,0,0
3971,shift,shape,right,1,1,0.7278518,right,0.7456093765625,0.6352102316955819,6.4,0,0
3971,shift,shape,right,0,1,0.5358835,right,0.7456093765625,0.6352102316955819,6.4,0,0
3971,shift,color,left,1,1,0.4238697,left,0.7456093765625,0.6352102316955819,6.4,0,0
3971,shift,color,right,0,1,0.5199037,right,0.7456093765625,0.6352102316955819,6.4,0,0
3971,shift,color,left,0,1,0.4077365,left,0.7456093765625,0.6352102316955819,6.4,0,0
3971,shift,shape,left,1,1,0.9518209,left,0.7456093765625,0.6352102316955819,6.4,0,0
3971,shift,shape,left,0,1,0.5199494,left,0.7456093765625,0.6352102316955819,6.4,0,0
3971,shift,color,left,1,0,0.5998737,right,0.7456093765625,0.6352102316955819,6.4,0,0
3971,shift,shape,right,1,0,1.1598404,left,0.7456093765625,0.6352102316955819,6.4,0,0
3971,shift,color,right,1,0,0.4878514,left,0.7456093765625,0.6352102316955819,6.4,0,0
3971,shift,shape,left,1,1,0.9198592,left,0.7456093765625,0.6352102316955819,6.4,0,0
3971,shift,shape,right,0,1,0.3918919,right,0.7456093765625,0.6352102316955819,6.4,0,0
3971,shift,shape,right,0,1,0.7118804,right,0.7456093765625,0.6352102316955819,6.4,0,0
3971,shift,color,right,1,1,4.9677997,right,0.7456093765625,0.6352102316955819,6.4,1,0
3974,color,color,left,0,1,0.6384226,left,0.704187755,0.09926738389365877,2,0,0
3974,color,color,right,0,1,0.8719096,right,0.704187755,0.09926738389365877,2,0,0
3974,color,color,left,0,1,0.6158584,left,0.704187755,0.09926738389365877,2,0,0
3974,color,color,right,0,1,0.7918637,right,0.704187755,0.09926738389365877,2,0,0
3974,color,color,left,0,1,0.6158223,left,0.704187755,0.09926738389365877,2,0,0
3974,color,color,left,0,1,0.5998934,left,0.704187755,0.09926738389365877,2,0,0
3974,color,color,left,0,1,0.5678798,left,0.704187755,0.09926738389365877,2,0,0
3974,color,color,left,0,1,0.615909,left,0.704187755,0.09926738389365877,2,0,0
3974,color,color,right,0,1,0.7437996,right,0.704187755,0.09926738389365877,2,0,0
3974,color,color,left,0,1,0.7599021,left,0.704187755,0.09926738389365877,2,0,0
3974,color,color,right,0,1,0.7598102,right,0.704187755,0.09926738389365877,2,0,0
3974,color,color,left,0,1,0.6159062,left,0.704187755,0.09926738389365877,2,0,0
3974,color,color,right,0,1,0.8557526,right,0.704187755,0.09926738389365877,2,0,0
3974,color,color,right,0,1,0.7759615,right,0.704187755,0.09926738389365877,2,0,0
3974,color,color,left,0,1,0.7278254,left,0.704187755,0.09926738389365877,2,0,0
3974,color,color,right,0,1,0.5998406,right,0.704187755,0.09926738389365877,2,0,0
3974,color,color,right,0,1,0.8878513,right,0.704187755,0.09926738389365877,2,0,0
3974,color,color,left,0,1,0.6958692,left,0.704187755,0.09926738389365877,2,0,0
3974,color,color,right,0,1,0.711821,right,0.704187755,0.09926738389365877,2,0,0
3974,color,color,right,0,1,0.6318566,right,0.704187755,0.09926738389365877,2,0,0
3974,shape,shape,left,0,1,0.5039469,left,0.610267415,0.10148675036466207,2,0,0
3974,shape,shape,left,0,1,0.6318379,left,0.610267415,0.10148675036466207,2,0,0
3974,shape,shape,right,0,1,0.5038476,right,0.610267415,0.10148675036466207,2,0,0
3974,shape,shape,right,0,1,0.5839023,right,0.610267415,0.10148675036466207,2,0,0
3974,shape,shape,right,0,1,0.8558195,right,0.610267415,0.10148675036466207,2,0,0
3974,shape,shape,left,0,1,0.535754,left,0.610267415,0.10148675036466207,2,0,0
3974,shape,shape,right,0,1,0.584014,right,0.610267415,0.10148675036466207,2,0,0
3974,shape,shape,left,0,1,0.5518741,left,0.610267415,0.10148675036466207,2,0,0
3974,shape,shape,left,0,1,0.5518075,left,0.610267415,0.10148675036466207,2,0,0
3974,shape,shape,right,0,1,0.4878443,right,0.610267415,0.10148675036466207,2,0,0
3974,shape,shape,left,0,1,0.6318907,left,0.610267415,0.10148675036466207,2,0,0
3974,shape,shape,right,0,1,0.5838688,right,0.610267415,0.10148675036466207,2,0,0
3974,shape,shape,right,0,1,0.5518679,right,0.610267415,0.10148675036466207,2,0,0
3974,shape,shape,left,0,1,0.5838448,left,0.610267415,0.10148675036466207,2,0,0
3974,shape,shape,left,0,1,0.6638573,left,0.610267415,0.10148675036466207,2,0,0
3974,shape,shape,right,0,1,0.6478045,right,0.610267415,0.10148675036466207,2,0,0
3974,shape,shape,right,0,1,0.6159739,right,0.610267415,0.10148675036466207,2,0,0
3974,shape,shape,left,0,1,0.5838416,left,0.610267415,0.10148675036466207,2,0,0
3974,shape,shape,right,0,1,0.871826,right,0.610267415,0.10148675036466207,2,0,0
3974,shape,shape,left,0,1,0.6799247,left,0.610267415,0.10148675036466207,2,0,0
3974,shift,shape,left,0,1,0.7118517,left,0.8738598015625,0.21277883085896887,6.4,0,0
3974,shift,shape,right,0,1,0.8078062,right,0.8738598015625,0.21277883085896887,6.4,0,0
3974,shift,color,left,1,1,0.6799036,left,0.8738598015625,0.21277883085896887,6.4,0,0
3974,shift,shape,right,1,1,0.5358349,right,0.8738598015625,0.21277883085896887,6.4,0,0
3974,shift,color,right,1,0,0.6158774,left,0.8738598015625,0.21277883085896887,6.4,0,0
3974,shift,shape,left,1,1,0.983893,left,0.8738598015625,0.21277883085896887,6.4,0,0
3974,shift,shape,left,0,1,0.503742,left,0.8738598015625,0.21277883085896887,6.4,0,0
3974,shift,shape,left,0,1,0.6160308,left,0.8738598015625,0.21277883085896887,6.4,0,0
3974,shift,shape,left,0,1,0.855791,left,0.8738598015625,0.21277883085896887,6.4,0,0
3974,shift,color,right,1,1,0.6158288,right,0.8738598015625,0.21277883085896887,6.4,0,0
3974,shift,color,left,0,1,0.6158887,left,0.8738598015625,0.21277883085896887,6.4,0,0
3974,shift,shape,right,1,1,1.0958271,right,0.8738598015625,0.21277883085896887,6.4,0,0
3974,shift,color,right,1,1,1.1758639,right,0.8738598015625,0.21277883085896887,6.4,0,0
3974,shift,color,left,0,1,0.5838739,left,0.8738598015625,0.21277883085896887,6.4,0,0
3974,shift,color,right,0,1,0.7598491,right,0.8738598015625,0.21277883085896887,6.4,0,0
3974,shift,shape,right,1,1,1.143896,right,0.8738598015625,0.21277883085896887,6.4,0,0
3974,shift,color,left,1,1,1.0319225,left,0.8738598015625,0.21277883085896887,6.4,0,0
3974,shift,color,left,0,1,0.9038705,left,0.8738598015625,0.21277883085896887,6.4,0,0
3974,shift,shape,right,1,1,0.5837824,right,0.8738598015625,0.21277883085896887,6.4,0,0
3974,shift,shape,right,0,1,0.5358893,right,0.8738598015625,0.21277883085896887,6.4,0,0
3974,shift,color,left,1,1,0.6637755,left,0.8738598015625,0.21277883085896887,6.4,0,0
3974,shift,shape,left,1,1,1.0318998,left,0.8738598015625,0.21277883085896887,6.4,0,0
3974,shift,shape,left,0,1,0.5359125,left,0.8738598015625,0.21277883085896887,6.4,0,0
3974,shift,shape,left,0,1,0.6477366,left,0.8738598015625,0.21277883085896887,6.4,0,0
3974,shift,color,right,1,1,1.0958915,right,0.8738598015625,0.21277883085896887,6.4,0,0
3974,shift,shape,left,1,1,1.1919365,left,0.8738598015625,0.21277883085896887,6.4,0,0
3974,shift,color,left,1,0,0.7758048,right,0.8738598015625,0.21277883085896887,6.4,0,0
3974,shift,shape,right,1,1,1.0798214,right,0.8738598015625,0.21277883085896887,6.4,0,0
3974,shift,color,right,1,1,0.9039529,right,0.8738598015625,0.21277883085896887,6.4,0,0
3974,shift,color,left,0,1,0.8557971,left,0.8738598015625,0.21277883085896887,6.4,0,0
3974,shift,shape,right,1,1,0.8239475,right,0.8738598015625,0.21277883085896887,6.4,0,0
3974,shift,color,left,1,1,0.8397741,left,0.8738598015625,0.21277883085896887,6.4,0,0
3974,shift,color,right,0,1,0.7279439,right,0.8738598015625,0.21277883085896887,6.4,0,0
3974,shift,color,left,0,1,0.9198493,left,0.8738598015625,0.21277883085896887,6.4,0,0
3974,shift,color,right,0,1,0.711832,right,0.8738598015625,0.21277883085896887,6.4,0,0
3974,shift,shape,left,1,1,0.7759273,left,0.8738598015625,0.21277883085896887,6.4,0,0
3974,shift,color,right,1,1,0.7917302,right,0.8738598015625,0.21277883085896887,6.4,0,0
3974,shift,color,right,0,1,0.7119442,right,0.8738598015625,0.21277883085896887,6.4,0,0
3974,shift,shape,right,1,0,1.0798702,left,0.8738598015625,0.21277883085896887,6.4,0,0
3974,shift,shape,right,0,1,0.711788,right,0.8738598015625,0.21277883085896887,6.4,0,0
3974,shift,color,left,1,1,0.8879197,left,0.8738598015625,0.21277883085896887,6.4,0,0
3974,shift,shape,right,1,1,1.1918613,right,0.8738598015625,0.21277883085896887,6.4,0,0
3974,shift,shape,left,0,1,1.1598416,left,0.8738598015625,0.21277883085896887,6.4,0,0
3974,shift,shape,left,0,1,0.9678861,left,0.8738598015625,0.21277883085896887,6.4,0,0
3974,shift,shape,left,0,1,0.6958714,left,0.8738598015625,0.21277883085896887,6.4,0,0
3974,shift,color,right,1,1,0.7279067,right,0.8738598015625,0.21277883085896887,6.4,0,0
3974,shift,color,right,0,1,1.1758072,right,0.8738598015625,0.21277883085896887,6.4,0,0
3974,shift,shape,left,1,1,1.0957724,left,0.8738598015625,0.21277883085896887,6.4,0,0
3974,shift,shape,right,0,1,0.6959361,right,0.8738598015625,0.21277883085896887,6.4,0,0
3974,shift,shape,left,0,1,1.0958359,left,0.8738598015625,0.21277883085896887,6.4,0,0
3974,shift,color,right,1,1,1.0158502,right,0.8738598015625,0.21277883085896887,6.4,0,0
3974,shift,shape,right,1,1,0.9998561,right,0.8738598015625,0.21277883085896887,6.4,0,0
3974,shift,shape,right,0,1,1.1437652,right,0.8738598015625,0.21277883085896887,6.4,0,0
3974,shift,color,left,1,1,1.2719169,left,0.8738598015625,0.21277883085896887,6.4,0,0
3974,shift,color,left,0,1,1.1918387,left,0.8738598015625,0.21277883085896887,6.4,0,0
3974,shift,shape,right,1,1,0.9039329,right,0.8738598015625,0.21277883085896887,6.4,0,0
3974,shift,color,right,1,1,0.7597931,right,0.8738598015625,0.21277883085896887,6.4,0,0
3974,shift,shape,left,1,1,1.1118445,left,0.8738598015625,0.21277883085896887,6.4,0,0
3974,shift,color,left,1,1,0.9518034,left,0.8738598015625,0.21277883085896887,6.4,0,0
3974,shift,color,right,0,1,0.9039466,right,0.8738598015625,0.21277883085896887,6.4,0,0
3974,shift,color,left,0,1,0.8878464,left,0.8738598015625,0.21277883085896887,6.4,0,0
3974,shift,color,left,0,1,1.3040423,left,0.8738598015625,0.21277883085896887,6.4,0,0
3974,shift,shape,right,1,1,0.7757231,right,0.8738598015625,0.21277883085896887,6.4,0,0
3974,shift,color,right,1,1,0.7758714,right,0.8738598015625,0.21277883085896887,6.4,0,0
3975,shape,shape,left,0,1,0.4451553,left,0.44572725,0.05093094496175551,2,0,0
3975,shape,shape,left,0,1,0.5357849,left,0.44572725,0.05093094496175551,2,0,0
3975,shape,shape,right,0,1,0.5198729,right,0.44572725,0.05093094496175551,2,0,0
3975,shape,shape,right,0,1,0.4879722,right,0.44572725,0.05093094496175551,2,0,0
3975,shape,shape,right,0,1,0.4398611,right,0.44572725,0.05093094496175551,2,0,0
3975,shape,shape,left,0,1,0.4079176,left,0.44572725,0.05093094496175551,2,0,0
3975,shape,shape,right,0,1,0.5198868,right,0.44572725,0.05093094496175551,2,0,0
3975,shape,shape,right,0,1,0.4557992,right,0.44572725,0.05093094496175551,2,0,0
3975,shape,shape,left,0,1,0.439766,left,0.44572725,0.05093094496175551,2,0,0
3975,shape,shape,left,0,1,0.423938,left,0.44572725,0.05093094496175551,2,0,0
3975,shape,shape,right,0,1,0.4079049,right,0.44572725,0.05093094496175551,2,0,0
3975,shape,shape,left,0,1,0.4878563,left,0.44572725,0.05093094496175551,2,0,0
3975,shape,shape,left,0,1,0.3598519,left,0.44572725,0.05093094496175551,2,0,0
3975,shape,shape,right,0,1,0.4398917,right,0.44572725,0.05093094496175551,2,0,0
3975,shape,shape,right,0,1,0.4718243,right,0.44572725,0.05093094496175551,2,0,0
3975,shape,shape,right,0,1,0.4398972,right,0.44572725,0.05093094496175551,2,0,0
3975,shape,shape,left,0,1,0.3917738,left,0.44572725,0.05093094496175551,2,0,0
3975,shape,shape,left,0,1,0.487978,left,0.44572725,0.05093094496175551,2,0,0
3975,shape,shape,left,0,1,0.3918372,left,0.44572725,0.05093094496175551,2,0,0
3975,shape,shape,right,0,1,0.3597757,right,0.44572725,0.05093094496175551,2,0,0
3975,color,color,left,0,1,0.6799789,left,0.4318703,0.09676617527255015,2,0,0
3975,color,color,right,0,1,0.4558145,right,0.4318703,0.09676617527255015,2,0,0
3975,color,color,left,0,1,0.4079977,left,0.4318703,0.09676617527255015,2,0,0
3975,color,color,right,0,1,0.4397788,right,0.4318703,0.09676617527255015,2,0,0
3975,color,color,left,0,1,0.3918169,left,0.4318703,0.09676617527255015,2,0,0
3975,color,color,right,0,1,0.407908,right,0.4318703,0.09676617527255015,2,0,0
3975,color,color,right,0,1,0.4397762,right,0.4318703,0.09676617527255015,2,0,0
3975,color,color,left,0,1,0.3439843,left,0.4318703,0.09676617527255015,2,0,0
3975,color,color,right,0,1,0.6158593,right,0.4318703,0.09676617527255015,2,0,0
3975,color,color,right,0,1,0.583861,right,0.4318703,0.09676617527255015,2,0,0
3975,color,color,left,0,1,0.4398395,left,0.4318703,0.09676617527255015,2,0,0
3975,color,color,left,0,1,0.4237898,left,0.4318703,0.09676617527255015,2,0,0
3975,color,color,right,0,1,0.3279951,right,0.4318703,0.09676617527255015,2,0,0
3975,color,color,left,0,1,0.3917727,left,0.4318703,0.09676617527255015,2,0,0
3975,color,color,right,0,1,0.3278323,right,0.4318703,0.09676617527255015,2,0,0
3975,color,color,right,0,1,0.2959622,right,0.4318703,0.09676617527255015,2,0,0
3975,color,color,left,0,1,0.4079532,left,0.4318703,0.09676617527255015,2,0,0
3975,color,color,right,0,1,0.4559035,right,0.4318703,0.09676617527255015,2,0,0
3975,color,color,left,0,1,0.3597967,left,0.4318703,0.09676617527255015,2,0,0
3975,color,color,left,0,1,0.4397854,left,0.4318703,0.09676617527255015,2,0,0
3975,shift,shape,right,1,0,0.3759205,left,0.6261137125,0.3137460750815257,6.4,0,0
3975,shift,shape,left,0,0,0.9837443,right,0.6261137125,0.3137460750815257,6.4,0,0
3975,shift,color,right,1,1,0.711916,right,0.6261137125,0.3137460750815257,6.4,0,0
3975,shift,shape,left,1,1,0.4878901,left,0.6261137125,0.3137460750815257,6.4,0,0
3975,shift,shape,left,0,1,0.4238719,left,0.6261137125,0.3137460750815257,6.4,0,0
3975,shift,shape,right,0,1,0.7598637,right,0.6261137125,0.3137460750815257,6.4,0,0
3975,shift,color,left,1,1,0.5358258,left,0.6261137125,0.3137460750815257,6.4,0,0
3975,shift,color,left,0,1,0.391921,left,0.6261137125,0.3137460750815257,6.4,0,0
3975,shift,shape,left,1,0,0.5679144,right,0.6261137125,0.3137460750815257,6.4,0,0
3975,shift,color,left,1,1,0.5998641,left,0.6261137125,0.3137460750815257,6.4,0,0
3975,shift,color,right,0,1,1.5277579,right,0.6261137125,0.3137460750815257,6.4,0,0
3975,shift,shape,right,1,0,0.4238834,left,0.6261137125,0.3137460750815257,6.4,0,0
3975,shift,color,right,1,1,0.5678307,right,0.6261137125,0.3137460750815257,6.4,0,0
3975,shift,color,right,0,1,0.439817,right,0.6261137125,0.3137460750815257,6.4,0,0
3975,shift,shape,right,1,1,0.4879442,right,0.6261137125,0.3137460750815257,6.4,0,0
3975,shift,color,right,1,1,0.4878884,right,0.6261137125,0.3137460750815257,6.4,0,0
3975,shift,shape,left,1,1,0.4557576,left,0.6261137125,0.3137460750815257,6.4,0,0
3975,shift,shape,right,0,1,0.519958,right,0.6261137125,0.3137460750815257,6.4,0,0
3975,shift,color,left,1,1,0.6958701,left,0.6261137125,0.3137460750815257,6.4,0,0
3975,shift,shape,left,1,1,0.631861,left,0.6261137125,0.3137460750815257,6.4,0,0
3975,shift,color,left,1,1,0.343937,left,0.6261137125,0.3137460750815257,6.4,0,0
3975,shift,color,right,0,1,0.3759119,right,0.6261137125,0.3137460750815257,6.4,0,0
3975,shift,color,left,0,1,0.423708,left,0.6261137125,0.3137460750815257,6.4,0,0
3975,shift,shape,right,1,1,0.5199978,right,0.6261137125,0.3137460750815257,6.4,0,0
3975,shift,shape,right,0,1,0.3917587,right,0.6261137125,0.3137460750815257,6.4,0,0
3975,shift,color,right,1,1,0.3919292,right,0.6261137125,0.3137460750815257,6.4,0,0
3975,shift,color,left,0,1,0.7438465,left,0.6261137125,0.3137460750815257,6.4,0,0
3975,shift,shape,right,1,1,0.6318427,right,0.6261137125,0.3137460750815257,6.4,0,0
3975,shift,shape,left,0,1,0.5838522,left,0.6261137125,0.3137460750815257,6.4,0,0
3975,shift,color,right,1,1,0.4717619,right,0.6261137125,0.3137460750815257,6.4,0,0
3975,shift,shape,right,1,1,0.5839729,right,0.6261137125,0.3137460750815257,6.4,0,0
3975,shift,shape,right,0,1,0.4078794,right,0.6261137125,0.3137460750815257,6.4,0,0
3975,shift,color,left,1,1,0.4557754,left,0.6261137125,0.3137460750815257,6.4,0,0
3975,shift,color,right,0,1,1.3839355,right,0.6261137125,0.3137460750815257,6.4,0,0
3975,shift,color,right,0,1,0.8078427,right,0.6261137125,0.3137460750815257,6.4,0,0
3975,shift,color,right,0,1,0.4398336,right,0.6261137125,0.3137460750815257,6.4,0,0
3975,shift,shape,right,1,1,1.1119242,right,0.6261137125,0.3137460750815257,6.4,0,0
3975,shift,color,right,1,1,0.8077292,right,0.6261137125,0.3137460750815257,6.4,0,0
3975,shift,color,left,0,0,0.7279667,right,0.6261137125,0.3137460750815257,6.4,0,0
3975,shift,color,left,0,1,0.5678705,left,0.6261137125,0.3137460750815257,6.4,0,0
3975,shift,shape,left,1,1,0.5678118,left,0.6261137125,0.3137460750815257,6.4,0,0
3975,shift,shape,right,0,1,2.2479077,right,0.6261137125,0.3137460750815257,6.4,1,0
3975,shift,color,left,1,1,0.9198621,left,0.6261137125,0.3137460750815257,6.4,0,0
3975,shift,shape,right,1,1,1.3358761,right,0.6261137125,0.3137460750815257,6.4,0,0
3975,shift,shape,left,0,1,0.6157307,left,0.6261137125,0.3137460750815257,6.4,0,0
3975,shift,shape,left,0,1,0.6159479,left,0.6261137125,0.3137460750815257,6.4,0,0
3975,shift,color,right,1,1,0.5999158,right,0.6261137125,0.3137460750815257,6.4,0,0
3975,shift,color,right,0,1,0.6797849,right,0.6261137125,0.3137460750815257,6.4,0,0
3975,shift,color,right,0,1,0.5518525,right,0.6261137125,0.3137460750815257,6.4,0,0
3975,shift,shape,left,1,1,0.5358984,left,0.6261137125,0.3137460750815257,6.4,0,0
3975,shift,color,left,1,1,0.5999016,left,0.6261137125,0.3137460750815257,6.4,0,0
3975,shift,color,right,0,1,0.3757968,right,0.6261137125,0.3137460750815257,6.4,0,0
3975,shift,shape,left,1,1,0.6318796,left,0.6261137125,0.3137460750815257,6.4,0,0
3975,shift,shape,left,0,1,0.4558989,left,0.6261137125,0.3137460750815257,6.4,0,0
3975,shift,shape,left,0,1,0.4558606,left,0.6261137125,0.3137460750815257,6.4,0,0
3975,shift,color,left,1,1,0.5198794,left,0.6261137125,0.3137460750815257,6.4,0,0
3975,shift,shape,right,1,1,0.5838083,right,0.6261137125,0.3137460750815257,6.4,0,0
3975,shift,shape,left,0,1,0.4399027,left,0.6261137125,0.3137460750815257,6.4,0,0
3975,shift,shape,right,0,1,0.4718976,right,0.6261137125,0.3137460750815257,6.4,0,0
3975,shift,color,left,1,1,0.4878932,left,0.6261137125,0.3137460750815257,6.4,0,0
3975,shift,color,left,0,1,0.6638074,left,0.6261137125,0.3137460750815257,6.4,0,0
3975,shift,shape,right,1,1,0.5518694,right,0.6261137125,0.3137460750815257,6.4,0,0
3975,shift,shape,left,0,1,0.3598721,left,0.6261137125,0.3137460750815257,6.4,0,0
3975,shift,color,left,1,1,0.551846,left,0.6261137125,0.3137460750815257,6.4,0,0
3976,shape,shape,left,0,1,0.6062515,left,0.55937651,0.08084152337611825,2,0,0
3976,shape,shape,right,0,1,0.5518973,right,0.55937651,0.08084152337611825,2,0,0
3976,shape,shape,right,0,1,0.63179,right,0.55937651,0.08084152337611825,2,0,0
3976,shape,shape,left,0,1,0.583874,left,0.55937651,0.08084152337611825,2,0,0
3976,shape,shape,left,0,1,0.5519323,left,0.55937651,0.08084152337611825,2,0,0
3976,shape,shape,left,0,1,0.4877902,left,0.55937651,0.08084152337611825,2,0,0
3976,shape,shape,right,0,1,0.3758868,right,0.55937651,0.08084152337611825,2,0,0
3976,shape,shape,left,0,1,0.535856,left,0.55937651,0.08084152337611825,2,0,0
3976,shape,shape,left,0,1,0.5358403,left,0.55937651,0.08084152337611825,2,0,0
3976,shape,shape,left,0,1,0.4558486,left,0.55937651,0.08084152337611825,2,0,0
3976,shape,shape,right,0,1,0.5358699,right,0.55937651,0.08084152337611825,2,0,0
3976,shape,shape,left,0,1,0.7438034,left,0.55937651,0.08084152337611825,2,0,0
3976,shape,shape,right,0,1,0.6159211,right,0.55937651,0.08084152337611825,2,0,0
3976,shape,shape,left,0,1,0.5517986,left,0.55937651,0.08084152337611825,2,0,0
3976,shape,shape,right,0,1,0.5678991,right,0.55937651,0.08084152337611825,2,0,0
3976,shape,shape,right,0,1,0.6638237,right,0.55937651,0.08084152337611825,2,0,0
3976,shape,shape,left,0,1,0.567959,left,0.55937651,0.08084152337611825,2,0,0
3976,shape,shape,right,0,1,0.4398312,right,0.55937651,0.08084152337611825,2,0,0
3976,shape,shape,right,0,1,0.5998141,right,0.55937651,0.08084152337611825,2,0,0
3976,shape,shape,right,0,1,0.5838431,right,0.55937651,0.08084152337611825,2,0,0
3976,color,color,right,0,1,0.5358611,right,0.667065075,0.1587011336451397,2,0,0
3976,color,color,left,0,1,0.9999334,left,0.667065075,0.1587011336451397,2,0,0
3976,color,color,left,0,1,0.6319003,left,0.667065075,0.1587011336451397,2,0,0
3976,color,color,left,0,1,0.5997634,left,0.667065075,0.1587011336451397,2,0,0
3976,color,color,left,0,1,0.5839568,left,0.667065075,0.1587011336451397,2,0,0
3976,color,color,right,0,1,0.679897,right,0.667065075,0.1587011336451397,2,0,0
3976,color,color,left,0,1,0.6158252,left,0.667065075,0.1587011336451397,2,0,0
3976,color,color,right,0,1,1.0158258,right,0.667065075,0.1587011336451397,2,0,0
3976,color,color,right,0,1,0.8718333,right,0.667065075,0.1587011336451397,2,0,0
3976,color,color,left,0,1,0.7759342,left,0.667065075,0.1587011336451397,2,0,0
3976,color,color,right,0,1,0.6318467,right,0.667065075,0.1587011336451397,2,0,0
3976,color,color,left,0,1,0.6318512,left,0.667065075,0.1587011336451397,2,0,0
3976,color,color,right,0,1,0.4398634,right,0.667065075,0.1587011336451397,2,0,0
3976,color,color,right,0,1,0.4878252,right,0.667065075,0.1587011336451397,2,0,0
3976,color,color,right,0,1,0.7279208,right,0.667065075,0.1587011336451397,2,0,0
3976,color,color,right,0,1,0.4238872,right,0.667065075,0.1587011336451397,2,0,0
3976,color,color,left,0,1,0.6318735,left,0.667065075,0.1587011336451397,2,0,0
3976,color,color,right,0,1,0.7437977,right,0.667065075,0.1587011336451397,2,0,0
3976,color,color,left,0,1,0.6158853,left,0.667065075,0.1587011336451397,2,0,0
3976,color,color,left,0,1,0.69582,left,0.667065075,0.1587011336451397,2,0,0
3976,shift,color,right,0,1,0.5518127,right,0.808610409375,0.24948166252463927,6.4,0,0
3976,shift,shape,left,1,0,0.5678626,right,0.808610409375,0.24948166252463927,6.4,0,0
3976,shift,shape,right,0,0,0.5839378,left,0.808610409375,0.24948166252463927,6.4,0,0
3976,shift,color,right,1,1,0.5677631,right,0.808610409375,0.24948166252463927,6.4,0,0
3976,shift,color,right,0,1,0.7599763,right,0.808610409375,0.24948166252463927,6.4,0,0
3976,shift,color,left,0,1,0.5038238,left,0.808610409375,0.24948166252463927,6.4,0,0
3976,shift,shape,left,1,1,0.6637929,left,0.808610409375,0.24948166252463927,6.4,0,0
3976,shift,shape,right,0,1,0.6319342,right,0.808610409375,0.24948166252463927,6.4,0,0
3976,shift,shape,left,0,1,0.7118311,left,0.808610409375,0.24948166252463927,6.4,0,0
3976,shift,color,left,1,1,0.6318665,left,0.808610409375,0.24948166252463927,6.4,0,0
3976,shift,shape,right,1,1,0.5678855,right,0.808610409375,0.24948166252463927,6.4,0,0
3976,shift,shape,left,0,1,0.5837651,left,0.808610409375,0.24948166252463927,6.4,0,0
3976,shift,shape,left,0,1,0.5839051,left,0.808610409375,0.24948166252463927,6.4,0,0
3976,shift,shape,right,0,1,0.6158934,right,0.808610409375,0.24948166252463927,6.4,0,0
3976,shift,color,right,1,0,0.5038905,left,0.808610409375,0.24948166252463927,6.4,0,0
3976,shift,color,left,0,0,0.5998161,right,0.808610409375,0.24948166252463927,6.4,0,0
3976,shift,color,left,0,1,0.6479244,left,0.808610409375,0.24948166252463927,6.4,0,0
3976,shift,color,right,0,1,0.8878702,right,0.808610409375,0.24948166252463927,6.4,0,0
3976,shift,shape,left,1,1,1.5918453,left,0.808610409375,0.24948166252463927,6.4,1,0
3976,shift,shape,left,0,1,0.6637545,left,0.808610409375,0.24948166252463927,6.4,0,0
3976,shift,color,left,1,1,0.9359062,left,0.808610409375,0.24948166252463927,6.4,0,0
3976,shift,color,left,0,1,0.7278899,left,0.808610409375,0.24948166252463927,6.4,0,0
3976,shift,color,right,0,1,0.7438593,right,0.808610409375,0.24948166252463927,6.4,0,0
3976,shift,shape,left,1,1,0.6318571,left,0.808610409375,0.24948166252463927,6.4,0,0
3976,shift,shape,left,0,1,0.7278576,left,0.808610409375,0.24948166252463927,6.4,0,0
3976,shift,shape,right,0,1,0.663883,right,0.808610409375,0.24948166252463927,6.4,0,0
3976,shift,color,left,1,1,0.7918885,left,0.808610409375,0.24948166252463927,6.4,0,0
3976,shift,shape,left,1,0,0.6477355,right,0.808610409375,0.24948166252463927,6.4,0,0
3976,shift,color,right,1,1,0.9998795,right,0.808610409375,0.24948166252463927,6.4,0,0
3976,shift,shape,right,1,1,1.2399316,right,0.808610409375,0.24948166252463927,6.4,0,0
3976,shift,shape,right,0,1,1.2399281,right,0.808610409375,0.24948166252463927,6.4,0,0
3976,shift,color,right,1,1,1.3037211,right,0.808610409375,0.24948166252463927,6.4,0,0
3976,shift,color,right,0,1,0.7919414,right,0.808610409375,0.24948166252463927,6.4,0,0
3976,shift,shape,right,1,1,1.2238204,right,0.808610409375,0.24948166252463927,6.4,0,0
3976,shift,color,right,1,1,0.8564954,right,0.808610409375,0.24948166252463927,6.4,0,0
3976,shift,color,right,0,1,0.8552152,right,0.808610409375,0.24948166252463927,6.4,0,0
3976,shift,shape,left,1,1,0.743906,left,0.808610409375,0.24948166252463927,6.4,0,0
3976,shift,shape,right,0,1,0.7758233,right,0.808610409375,0.24948166252463927,6.4,0,0
3976,shift,color,left,1,1,1.0319029,left,0.808610409375,0.24948166252463927,6.4,0,0
3976,shift,shape,right,1,1,0.6958278,right,0.808610409375,0.24948166252463927,6.4,0,0
3976,shift,color,left,1,1,0.8237986,left,0.808610409375,0.24948166252463927,6.4,0,0
3976,shift,color,right,0,1,0.7919481,right,0.808610409375,0.24948166252463927,6.4,0,0
3976,shift,shape,right,1,1,0.5518234,right,0.808610409375,0.24948166252463927,6.4,0,0
3976,shift,shape,left,0,1,0.887883,left,0.808610409375,0.24948166252463927,6.4,0,0
3976,shift,color,left,1,1,1.0957802,left,0.808610409375,0.24948166252463927,6.4,0,0
3976,shift,color,left,0,1,0.7919284,left,0.808610409375,0.24948166252463927,6.4,0,0
3976,shift,shape,right,1,1,0.5678361,right,0.808610409375,0.24948166252463927,6.4,0,0
3976,shift,shape,right,0,1,1.0798979,right,0.808610409375,0.24948166252463927,6.4,0,0
3976,shift,shape,left,0,1,0.6478291,left,0.808610409375,0.24948166252463927,6.4,0,0
3976,shift,color,right,1,1,0.5998559,right,0.808610409375,0.24948166252463927,6.4,0,0
3976,shift,shape,right,1,1,0.6798093,right,0.808610409375,0.24948166252463927,6.4,0,0
3976,shift,shape,left,0,1,0.8238677,left,0.808610409375,0.24948166252463927,6.4,0,0
3976,shift,color,left,1,1,0.7919989,left,0.808610409375,0.24948166252463927,6.4,0,0
3976,shift,color,right,0,1,0.7438763,right,0.808610409375,0.24948166252463927,6.4,0,0
3976,shift,shape,left,1,1,0.6157654,left,0.808610409375,0.24948166252463927,6.4,0,0
3976,shift,color,right,1,1,0.727868,right,0.808610409375,0.24948166252463927,6.4,0,0
3976,shift,shape,right,1,1,1.5918312,right,0.808610409375,0.24948166252463927,6.4,1,0
3976,shift,shape,left,0,1,1.2558818,left,0.808610409375,0.24948166252463927,6.4,0,0
3976,shift,color,left,1,1,0.9197761,left,0.808610409375,0.24948166252463927,6.4,0,0
3976,shift,shape,right,1,1,1.0959107,right,0.808610409375,0.24948166252463927,6.4,0,0
3976,shift,color,left,1,1,1.191857,left,0.808610409375,0.24948166252463927,6.4,0,0
3976,shift,color,right,0,1,0.7439192,right,0.808610409375,0.24948166252463927,6.4,0,0
3976,shift,color,left,0,1,0.7758568,left,0.808610409375,0.24948166252463927,6.4,0,0
3976,shift,color,left,0,1,0.9038462,left,0.808610409375,0.24948166252463927,6.4,0,0
3977,color,color,left,0,1,0.446066,left,0.57856929,0.20033376589800253,2,0,0
3977,color,color,right,0,1,0.5837554,right,0.57856929,0.20033376589800253,2,0,0
3977,color,color,left,0,1,0.4719803,left,0.57856929,0.20033376589800253,2,0,0
3977,color,color,right,0,1,0.7438169,right,0.57856929,0.20033376589800253,2,0,0
3977,color,color,left,0,1,0.8558865,left,0.57856929,0.20033376589800253,2,0,0
3977,color,color,right,0,1,0.4558797,right,0.57856929,0.20033376589800253,2,0,0
3977,color,color,right,0,1,0.4077365,right,0.57856929,0.20033376589800253,2,0,0
3977,color,color,left,0,1,0.5679582,left,0.57856929,0.20033376589800253,2,0,0
3977,color,color,left,0,1,0.5518681,left,0.57856929,0.20033376589800253,2,0,0
3977,color,color,right,0,1,0.5037773,right,0.57856929,0.20033376589800253,2,0,0
3977,color,color,left,0,1,1.191949,left,0.57856929,0.20033376589800253,2,1,0
3977,color,color,right,0,1,0.3758166,right,0.57856929,0.20033376589800253,2,0,0
3977,color,color,right,0,1,0.7279158,right,0.57856929,0.20033376589800253,2,0,0
3977,color,color,left,0,1,0.4878631,left,0.57856929,0.20033376589800253,2,0,0
3977,color,color,right,0,1,0.3918555,right,0.57856929,0.20033376589800253,2,0,0
3977,color,color,right,0,1,0.4077313,right,0.57856929,0.20033376589800253,2,0,0
3977,color,color,left,0,1,0.4559566,left,0.57856929,0.20033376589800253,2,0,0
3977,color,color,left,0,1,0.7918326,left,0.57856929,0.20033376589800253,2,0,0
3977,color,color,left,0,1,0.6318759,left,0.57856929,0.20033376589800253,2,0,0
3977,color,color,right,0,1,0.5198645,right,0.57856929,0.20033376589800253,2,0,0
3977,shape,shape,right,0,1,0.6158417,right,0.535854355,0.24603726923402539,2,0,0
3977,shape,shape,left,0,1,0.5998475,left,0.535854355,0.24603726923402539,2,0,0
3977,shape,shape,right,0,1,0.6158984,right,0.535854355,0.24603726923402539,2,0,0
3977,shape,shape,left,0,1,0.4078453,left,0.535854355,0.24603726923402539,2,0,0
3977,shape,shape,left,0,1,0.375876,left,0.535854355,0.24603726923402539,2,0,0
3977,shape,shape,left,0,1,0.4077639,left,0.535854355,0.24603726923402539,2,0,0
3977,shape,shape,left,0,1,0.6479324,left,0.535854355,0.24603726923402539,2,0,0
3977,shape,shape,right,0,1,0.4398215,right,0.535854355,0.24603726923402539,2,0,0
3977,shape,shape,right,0,0,0.439865,left,0.535854355,0.24603726923402539,2,0,0
3977,shape,shape,right,0,1,1.4959359,right,0.535854355,0.24603726923402539,2,1,0
3977,shape,shape,right,0,1,0.3917527,right,0.535854355,0.24603726923402539,2,0,0
3977,shape,shape,left,0,1,0.3279137,left,0.535854355,0.24603726923402539,2,0,0
3977,shape,shape,left,0,1,0.5358496,left,0.535854355,0.24603726923402539,2,0,0
3977,shape,shape,left,0,1,0.4078177,left,0.535854355,0.24603726923402539,2,0,0
3977,shape,shape,right,0,1,0.3438849,right,0.535854355,0.24603726923402539,2,0,0
3977,shape,shape,left,0,1,0.4878774,left,0.535854355,0.24603726923402539,2,0,0
3977,shape,shape,right,0,1,0.5518662,right,0.535854355,0.24603726923402539,2,0,0
3977,shape,shape,left,0,1,0.5518865,left,0.535854355,0.24603726923402539,2,0,0
3977,shape,shape,right,0,1,0.5677892,right,0.535854355,0.24603726923402539,2,0,0
3977,shape,shape,right,0,1,0.5038216,right,0.535854355,0.24603726923402539,2,0,0
3977,shift,color,left,1,1,0.7918574,left,0.649113065625,0.3201202177658021,6.4,0,0
3977,shift,shape,right,1,1,0.9198583,right,0.649113065625,0.3201202177658021,6.4,0,0
3977,shift,shape,right,0,1,0.5039466,right,0.649113065625,0.3201202177658021,6.4,0,0
3977,shift,shape,left,0,1,0.471877,left,0.649113065625,0.3201202177658021,6.4,0,0
3977,shift,color,right,1,1,0.647865,right,0.649113065625,0.3201202177658021,6.4,0,0
3977,shift,color,left,0,1,0.4398788,left,0.649113065625,0.3201202177658021,6.4,0,0
3977,shift,color,right,0,1,1.3197516,right,0.649113065625,0.3201202177658021,6.4,0,0
3977,shift,color,left,0,1,0.7439369,left,0.649113065625,0.3201202177658021,6.4,0,0
3977,shift,shape,left,1,1,0.4558603,left,0.649113065625,0.3201202177658021,6.4,0,0
3977,shift,shape,right,0,1,0.4398546,right,0.649113065625,0.3201202177658021,6.4,0,0
3977,shift,shape,left,0,1,0.5197882,left,0.649113065625,0.3201202177658021,6.4,0,0
3977,shift,shape,left,0,1,0.5998498,left,0.649113065625,0.3201202177658021,6.4,0,0
3977,shift,color,left,1,1,0.3439533,left,0.649113065625,0.3201202177658021,6.4,0,0
3977,shift,shape,right,1,1,0.3278842,right,0.649113065625,0.3201202177658021,6.4,0,0
3977,shift,shape,right,0,1,0.4399311,right,0.649113065625,0.3201202177658021,6.4,0,0
3977,shift,color,left,1,1,0.6957278,left,0.649113065625,0.3201202177658021,6.4,0,0
3977,shift,shape,right,1,1,0.6159751,right,0.649113065625,0.3201202177658021,6.4,0,0
3977,shift,shape,right,0,1,0.45583,right,0.649113065625,0.3201202177658021,6.4,0,0
3977,shift,color,right,1,0,0.4399011,left,0.649113065625,0.3201202177658021,6.4,0,0
3977,shift,color,right,0,1,0.35978,right,0.649113065625,0.3201202177658021,6.4,0,0
3977,shift,shape,left,1,1,1.3679348,left,0.649113065625,0.3201202177658021,6.4,0,0
3977,shift,shape,right,0,1,0.439817,right,0.649113065625,0.3201202177658021,6.4,0,0
3977,shift,shape,right,0,1,0.3438956,right,0.649113065625,0.3201202177658021,6.4,0,0
3977,shift,shape,left,0,1,0.5358163,left,0.649113065625,0.3201202177658021,6.4,0,0
3977,shift,color,left,1,1,0.3118797,left,0.649113065625,0.3201202177658021,6.4,0,0
3977,shift,color,left,0,1,0.3278756,left,0.649113065625,0.3201202177658021,6.4,0,0
3977,shift,shape,left,1,1,0.4557838,left,0.649113065625,0.3201202177658021,6.4,0,0
3977,shift,color,right,1,1,0.6318888,right,0.649113065625,0.3201202177658021,6.4,0,0
3977,shift,color,left,0,1,0.4398973,left,0.649113065625,0.3201202177658021,6.4,0,0
3977,shift,color,left,0,1,0.5838142,left,0.649113065625,0.3201202177658021,6.4,0,0
3977,shift,color,right,0,1,0.5199297,right,0.649113065625,0.3201202177658021,6.4,0,0
3977,shift,shape,right,1,1,0.4718563,right,0.649113065625,0.3201202177658021,6.4,0,0
3977,shift,shape,left,0,1,0.4077921,left,0.649113065625,0.3201202177658021,6.4,0,0
3977,shift,color,right,1,1,0.8719145,right,0.649113065625,0.3201202177658021,6.4,0,0
3977,shift,shape,right,1,0,0.727866,left,0.649113065625,0.3201202177658021,6.4,0,0
3977,shift,shape,right,0,1,0.7438774,right,0.649113065625,0.3201202177658021,6.4,0,0
3977,shift,color,left,1,1,0.4878044,left,0.649113065625,0.3201202177658021,6.4,0,0
3977,shift,shape,right,1,1,1.1919128,right,0.649113065625,0.3201202177658021,6.4,0,0
3977,shift,color,right,1,1,0.4238099,right,0.649113065625,0.3201202177658021,6.4,0,0
3977,shift,shape,left,1,1,1.2559456,left,0.649113065625,0.3201202177658021,6.4,0,0
3977,shift,shape,left,0,1,0.5997835,left,0.649113065625,0.3201202177658021,6.4,0,0
3977,shift,shape,left,0,1,0.8718035,left,0.649113065625,0.3201202177658021,6.4,0,0
3977,shift,color,left,1,1,0.6159759,left,0.649113065625,0.3201202177658021,6.4,0,0
3977,shift,color,left,0,1,0.4078352,left,0.649113065625,0.3201202177658021,6.4,0,0
3977,shift,shape,left,1,1,0.4878617,left,0.649113065625,0.3201202177658021,6.4,0,0
3977,shift,color,right,1,1,0.4878775,right,0.649113065625,0.3201202177658021,6.4,0,0
3977,shift,color,right,0,1,0.4398508,right,0.649113065625,0.3201202177658021,6.4,0,0
3977,shift,shape,left,1,1,0.8237967,left,0.649113065625,0.3201202177658021,6.4,0,0
3977,shift,color,right,1,1,0.4399604,right,0.649113065625,0.3201202177658021,6.4,0,0
3977,shift,color,right,0,1,0.4239382,right,0.649113065625,0.3201202177658021,6.4,0,0
3977,shift,color,left,0,1,0.4077335,left,0.649113065625,0.3201202177658021,6.4,0,0
3977,shift,shape,right,1,1,0.5039008,right,0.649113065625,0.3201202177658021,6.4,0,0
3977,shift,color,left,1,1,0.4718398,left,0.649113065625,0.3201202177658021,6.4,0,0
3977,shift,shape,left,1,1,1.1598181,left,0.649113065625,0.3201202177658021,6.4,0,0
3977,shift,shape,right,0,1,0.360079,right,0.649113065625,0.3201202177658021,6.4,0,0
3977,shift,color,right,1,1,0.4076769,right,0.649113065625,0.3201202177658021,6.4,0,0
3977,shift,shape,right,1,1,0.8558589,right,0.649113065625,0.3201202177658021,6.4,0,0
3977,shift,color,right,1,0,0.9198826,left,0.649113065625,0.3201202177658021,6.4,0,0
3977,shift,shape,left,1,1,1.0158013,left,0.649113065625,0.3201202177658021,6.4,0,0
3977,shift,color,left,1,1,0.6798993,left,0.649113065625,0.3201202177658021,6.4,0,0
3977,shift,color,right,0,0,0.9998667,left,0.649113065625,0.3201202177658021,6.4,0,0
3977,shift,color,left,0,1,0.7277606,left,0.649113065625,0.3201202177658021,6.4,0,0
3977,shift,color,right,0,1,1.4959887,right,0.649113065625,0.3201202177658021,6.4,0,0
3977,shift,shape,left,1,1,1.8638277,left,0.649113065625,0.3201202177658021,6.4,1,0
3979,color,color,left,0,1,0.6061782,left,0.497774545,0.18824056399058114,2,0,0
3979,color,color,left,0,1,0.4718547,left,0.497774545,0.18824056399058114,2,0,0
3979,color,color,left,0,1,0.4077479,left,0.497774545,0.18824056399058114,2,0,0
3979,color,color,right,0,1,0.4239412,right,0.497774545,0.18824056399058114,2,0,0
3979,color,color,left,0,1,0.4239017,left,0.497774545,0.18824056399058114,2,0,0
3979,color,color,left,0,1,0.4558002,left,0.497774545,0.18824056399058114,2,0,0
3979,color,color,right,0,1,0.4879469,right,0.497774545,0.18824056399058114,2,0,0
3979,color,color,left,0,1,0.407867,left,0.497774545,0.18824056399058114,2,0,0
3979,color,color,right,0,1,0.4238275,right,0.497774545,0.18824056399058114,2,0,0
3979,color,color,right,0,1,0.4237589,right,0.497774545,0.18824056399058114,2,0,0
3979,color,color,right,0,1,0.4559115,right,0.497774545,0.18824056399058114,2,0,0
3979,color,color,right,0,1,0.4238295,right,0.497774545,0.18824056399058114,2,0,0
3979,color,color,left,0,1,0.4079778,left,0.497774545,0.18824056399058114,2,0,0
3979,color,color,left,0,1,0.37586580000000003,left,0.497774545,0.18824056399058114,2,0,0
3979,color,color,right,0,1,0.5518586,right,0.497774545,0.18824056399058114,2,0,0
3979,color,color,right,0,1,0.5357414,right,0.497774545,0.18824056399058114,2,0,0
3979,color,color,right,0,1,0.5519884,right,0.497774545,0.18824056399058114,2,0,0
3979,color,color,left,0,1,0.4238493,left,0.497774545,0.18824056399058114,2,0,0
3979,color,color,left,0,1,1.2558344,left,0.497774545,0.18824056399058114,2,1,0
3979,color,color,right,0,1,0.43981,right,0.497774545,0.18824056399058114,2,0,0
3979,shape,shape,right,0,1,0.8399105,right,0.635861715,0.12998871530222708,2,0,0
3979,shape,shape,right,0,1,0.6158611,right,0.635861715,0.12998871530222708,2,0,0
3979,shape,shape,left,0,1,0.5197798,left,0.635861715,0.12998871530222708,2,0,0
3979,shape,shape,left,0,1,0.5199033,left,0.635861715,0.12998871530222708,2,0,0
3979,shape,shape,left,0,1,0.6158065,left,0.635861715,0.12998871530222708,2,0,0
3979,shape,shape,left,0,1,0.7119769,left,0.635861715,0.12998871530222708,2,0,0
3979,shape,shape,right,0,1,0.4878738,right,0.635861715,0.12998871530222708,2,0,0
3979,shape,shape,right,0,1,0.69586,right,0.635861715,0.12998871530222708,2,0,0
3979,shape,shape,right,0,1,0.5678301,right,0.635861715,0.12998871530222708,2,0,0
3979,shape,shape,right,0,1,0.5678762,right,0.635861715,0.12998871530222708,2,0,0
3979,shape,shape,left,0,1,0.6480591,left,0.635861715,0.12998871530222708,2,0,0
3979,shape,shape,left,0,1,0.6476627,left,0.635861715,0.12998871530222708,2,0,0
3979,shape,shape,right,0,1,0.6478799,right,0.635861715,0.12998871530222708,2,0,0
3979,shape,shape,left,0,1,0.5358387,left,0.635861715,0.12998871530222708,2,0,0
3979,shape,shape,right,0,1,0.7598878,right,0.635861715,0.12998871530222708,2,0,0
3979,shape,shape,left,0,1,0.7918201,left,0.635861715,0.12998871530222708,2,0,0
3979,shape,shape,right,0,1,0.9199035,right,0.635861715,0.12998871530222708,2,0,0
3979,shape,shape,right,0,1,0.7278346,right,0.635861715,0.12998871530222708,2,0,0
3979,shape,shape,left,0,1,0.4238436,left,0.635861715,0.12998871530222708,2,0,0
3979,shape,shape,left,0,1,0.4718261,left,0.635861715,0.12998871530222708,2,0,0
3979,shift,color,left,1,1,0.6638317,left,0.7188595765625,0.21068853131042223,6.4,0,0
3979,shift,color,left,0,1,0.4718516,left,0.7188595765625,0.21068853131042223,6.4,0,0
3979,shift,shape,left,1,1,0.6959629,left,0.7188595765625,0.21068853131042223,6.4,0,0
3979,shift,shape,left,0,1,0.6638186,left,0.7188595765625,0.21068853131042223,6.4,0,0
3979,shift,shape,right,0,1,0.64788,right,0.7188595765625,0.21068853131042223,6.4,0,0
3979,shift,color,right,1,1,0.5198911,right,0.7188595765625,0.21068853131042223,6.4,0,0
3979,shift,color,left,0,1,0.775734,left,0.7188595765625,0.21068853131042223,6.4,0,0
3979,shift,shape,right,1,1,0.7439433,right,0.7188595765625,0.21068853131042223,6.4,0,0
3979,shift,shape,right,0,1,0.5038584,right,0.7188595765625,0.21068853131042223,6.4,0,0
3979,shift,shape,left,0,1,0.8558963,left,0.7188595765625,0.21068853131042223,6.4,0,0
3979,shift,color,left,1,1,0.8558438,left,0.7188595765625,0.21068853131042223,6.4,0,0
3979,shift,shape,left,1,1,1.0957702,left,0.7188595765625,0.21068853131042223,6.4,0,0
3979,shift,color,left,1,1,0.6639729,left,0.7188595765625,0.21068853131042223,6.4,0,0
3979,shift,color,right,0,1,0.4718318,right,0.7188595765625,0.21068853131042223,6.4,0,0
3979,shift,shape,left,1,1,0.551765,left,0.7188595765625,0.21068853131042223,6.4,0,0
3979,shift,shape,right,0,1,0.6325031,right,0.7188595765625,0.21068853131042223,6.4,0,0
3979,shift,shape,right,0,1,0.5992731,right,0.7188595765625,0.21068853131042223,6.4,0,0
3979,shift,shape,right,0,1,0.567919,right,0.7188595765625,0.21068853131042223,6.4,0,0
3979,shift,color,left,1,1,0.4557514,left,0.7188595765625,0.21068853131042223,6.4,0,0
3979,shift,color,left,0,1,0.5359694,left,0.7188595765625,0.21068853131042223,6.4,0,0
3979,shift,shape,left,1,1,0.4718602,left,0.7188595765625,0.21068853131042223,6.4,0,0
3979,shift,shape,right,0,1,0.5998149,right,0.7188595765625,0.21068853131042223,6.4,0,0
3979,shift,color,left,1,1,0.7439201,left,0.7188595765625,0.21068853131042223,6.4,0,0
3979,shift,color,left,0,1,0.4717587,left,0.7188595765625,0.21068853131042223,6.4,0,0
3979,shift,color,right,0,1,0.9358598,right,0.7188595765625,0.21068853131042223,6.4,0,0
3979,shift,shape,left,1,1,0.67993,left,0.7188595765625,0.21068853131042223,6.4,0,0
3979,shift,shape,left,0,1,0.6799293,left,0.7188595765625,0.21068853131042223,6.4,0,0
3979,shift,color,left,1,1,1.0957738,left,0.7188595765625,0.21068853131042223,6.4,0,0
3979,shift,color,right,0,1,1.063791,right,0.7188595765625,0.21068853131042223,6.4,0,0
3979,shift,color,right,0,1,0.9199255,right,0.7188595765625,0.21068853131042223,6.4,0,0
3979,shift,shape,left,1,1,0.9679207,left,0.7188595765625,0.21068853131042223,6.4,0,0
3979,shift,color,left,1,1,0.7278088,left,0.7188595765625,0.21068853131042223,6.4,0,0
3979,shift,shape,right,1,1,0.6958693,right,0.7188595765625,0.21068853131042223,6.4,0,0
3979,shift,shape,left,0,1,0.6957536,left,0.7188595765625,0.21068853131042223,6.4,0,0
3979,shift,color,right,1,1,0.5199599,right,0.7188595765625,0.21068853131042223,6.4,0,0
3979,shift,color,right,0,0,0.7118159,left,0.7188595765625,0.21068853131042223,6.4,0,0
3979,shift,color,right,0,1,0.6638921,right,0.7188595765625,0.21068853131042223,6.4,0,0
3979,shift,shape,right,1,1,0.6958325,right,0.7188595765625,0.21068853131042223,6.4,0,0
3979,shift,shape,left,0,1,0.7438998,left,0.7188595765625,0.21068853131042223,6.4,0,0
3979,shift,color,right,1,1,0.8877413,right,0.7188595765625,0.21068853131042223,6.4,0,0
3979,shift,color,right,0,1,0.5038955,right,0.7188595765625,0.21068853131042223,6.4,0,0
3979,shift,shape,left,1,1,0.5358206,left,0.7188595765625,0.21068853131042223,6.4,0,0
3979,shift,color,left,1,1,0.951913,left,0.7188595765625,0.21068853131042223,6.4,0,0
3979,shift,shape,right,1,1,1.4477918,right,0.7188595765625,0.21068853131042223,6.4,1,0
3979,shift,color,left,1,1,1.2079779,left,0.7188595765625,0.21068853131042223,6.4,0,0
3979,shift,shape,right,1,1,0.7758549,right,0.7188595765625,0.21068853131042223,6.4,0,0
3979,shift,color,left,1,1,0.9358648,left,0.7188595765625,0.21068853131042223,6.4,0,0
3979,shift,shape,right,1,1,0.6797862,right,0.7188595765625,0.21068853131042223,6.4,0,0
3979,shift,color,right,1,1,0.9359162,right,0.7188595765625,0.21068853131042223,6.4,0,0
3979,shift,shape,left,1,1,0.6637392,left,0.7188595765625,0.21068853131042223,6.4,0,0
3979,shift,shape,right,0,1,0.5839178,right,0.7188595765625,0.21068853131042223,6.4,0,0
3979,shift,color,left,1,1,0.5998961,left,0.7188595765625,0.21068853131042223,6.4,0,0
3979,shift,color,right,0,1,0.6318417,right,0.7188595765625,0.21068853131042223,6.4,0,0
3979,shift,color,left,0,1,0.8877759,left,0.7188595765625,0.21068853131042223,6.4,0,0
3979,shift,shape,left,1,1,0.8239732,left,0.7188595765625,0.21068853131042223,6.4,0,0
3979,shift,shape,right,0,1,0.7278616,right,0.7188595765625,0.21068853131042223,6.4,0,0
3979,shift,shape,right,0,1,0.8718253,right,0.7188595765625,0.21068853131042223,6.4,0,0
3979,shift,shape,left,0,1,0.4878572,left,0.7188595765625,0.21068853131042223,6.4,0,0
3979,shift,color,right,1,1,0.4878934,right,0.7188595765625,0.21068853131042223,6.4,0,0
3979,shift,color,right,0,1,0.5359051,right,0.7188595765625,0.21068853131042223,6.4,0,0
3979,shift,shape,left,1,1,0.4716921,left,0.7188595765625,0.21068853131042223,6.4,0,0
3979,shift,color,right,1,1,0.6158603,right,0.7188595765625,0.21068853131042223,6.4,0,0
3979,shift,color,right,0,1,0.5038868,right,0.7188595765625,0.21068853131042223,6.4,0,0
3979,shift,shape,right,1,1,1.1919415,right,0.7188595765625,0.21068853131042223,6.4,0,0
3980,shape,shape,left,0,1,0.8460473,left,0.537769575,0.11283243124535498,2,0,0
3980,shape,shape,left,0,1,0.7278641,left,0.537769575,0.11283243124535498,2,0,0
3980,shape,shape,right,0,1,0.5839827,right,0.537769575,0.11283243124535498,2,0,0
3980,shape,shape,left,0,1,0.3438069,left,0.537769575,0.11283243124535498,2,0,0
3980,shape,shape,left,0,1,0.407798,left,0.537769575,0.11283243124535498,2,0,0
3980,shape,shape,right,0,1,0.487846,right,0.537769575,0.11283243124535498,2,0,0
3980,shape,shape,right,0,1,0.5839947,right,0.537769575,0.11283243124535498,2,0,0
3980,shape,shape,left,0,1,0.4877439,left,0.537769575,0.11283243124535498,2,0,0
3980,shape,shape,left,0,1,0.4238165,left,0.537769575,0.11283243124535498,2,0,0
3980,shape,shape,right,0,1,0.568006,right,0.537769575,0.11283243124535498,2,0,0
3980,shape,shape,right,0,1,0.5837713,right,0.537769575,0.11283243124535498,2,0,0
3980,shape,shape,left,0,1,0.4719495,left,0.537769575,0.11283243124535498,2,0,0
3980,shape,shape,right,0,1,0.5838846,right,0.537769575,0.11283243124535498,2,0,0
3980,shape,shape,right,0,1,0.4878372,right,0.537769575,0.11283243124535498,2,0,0
3980,shape,shape,left,0,1,0.407833,left,0.537769575,0.11283243124535498,2,0,0
3980,shape,shape,left,0,1,0.5357261,left,0.537769575,0.11283243124535498,2,0,0
3980,shape,shape,right,0,1,0.5998846,right,0.537769575,0.11283243124535498,2,0,0
3980,shape,shape,right,0,1,0.5678532,right,0.537769575,0.11283243124535498,2,0,0
3980,shape,shape,right,0,1,0.5199757,right,0.537769575,0.11283243124535498,2,0,0
3980,shape,shape,left,0,1,0.5357702,left,0.537769575,0.11283243124535498,2,0,0
3980,color,color,left,0,1,0.6318612,left,0.5670732,0.15411787662522272,2,0,0
3980,color,color,right,0,1,0.4079898,right,0.5670732,0.15411787662522272,2,0,0
3980,color,color,right,0,1,0.5038724,right,0.5670732,0.15411787662522272,2,0,0
3980,color,color,right,0,1,0.5359057,right,0.5670732,0.15411787662522272,2,0,0
3980,color,color,left,0,1,0.7277567,left,0.5670732,0.15411787662522272,2,0,0
3980,color,color,left,0,1,0.519883,left,0.5670732,0.15411787662522272,2,0,0
3980,color,color,left,0,1,0.4879318,left,0.5670732,0.15411787662522272,2,0,0
3980,color,color,right,0,1,0.8237359,right,0.5670732,0.15411787662522272,2,0,0
3980,color,color,left,0,1,0.6318632,left,0.5670732,0.15411787662522272,2,0,0
3980,color,color,left,0,1,0.6318618,left,0.5670732,0.15411787662522272,2,0,0
3980,color,color,right,0,1,0.4718778,right,0.5670732,0.15411787662522272,2,0,0
3980,color,color,left,0,1,0.5358684,left,0.5670732,0.15411787662522272,2,0,0
3980,color,color,right,0,1,0.4878536,right,0.5670732,0.15411787662522272,2,0,0
3980,color,color,right,0,1,0.5678689,right,0.5670732,0.15411787662522272,2,0,0
3980,color,color,left,0,1,0.503883,left,0.5670732,0.15411787662522272,2,0,0
3980,color,color,right,0,1,0.4558685,right,0.5670732,0.15411787662522272,2,0,0
3980,color,color,left,0,1,1.0319799,left,0.5670732,0.15411787662522272,2,1,0
3980,color,color,left,0,1,0.4397626,left,0.5670732,0.15411787662522272,2,0,0
3980,color,color,right,0,1,0.3598563,right,0.5670732,0.15411787662522272,2,0,0
3980,color,color,right,0,1,0.5839835,right,0.5670732,0.15411787662522272,2,0,0
3980,shift,color,right,0,1,0.4237713,right,0.835362503125,0.34963656349982747,6.4,0,0
3980,shift,shape,right,1,0,0.5198886,left,0.835362503125,0.34963656349982747,6.4,0,0
3980,shift,shape,right,0,0,0.5038265,left,0.835362503125,0.34963656349982747,6.4,0,0
3980,shift,color,left,1,1,0.5518651,left,0.835362503125,0.34963656349982747,6.4,0,0
3980,shift,color,right,0,1,0.5520005,right,0.835362503125,0.34963656349982747,6.4,0,0
3980,shift,shape,left,1,0,0.6477155,right,0.835362503125,0.34963656349982747,6.4,0,0
3980,shift,shape,right,0,0,0.5838763,left,0.835362503125,0.34963656349982747,6.4,0,0
3980,shift,shape,left,0,0,0.4399861,right,0.835362503125,0.34963656349982747,6.4,0,0
3980,shift,color,right,1,1,0.5999224,right,0.835362503125,0.34963656349982747,6.4,0,0
3980,shift,shape,left,1,1,0.5997071,left,0.835362503125,0.34963656349982747,6.4,0,0
3980,shift,shape,right,0,1,0.6799627,right,0.835362503125,0.34963656349982747,6.4,0,0
3980,shift,color,right,1,1,0.8877983,right,0.835362503125,0.34963656349982747,6.4,0,0
3980,shift,color,left,0,1,0.5038309,left,0.835362503125,0.34963656349982747,6.4,0,0
3980,shift,color,left,0,1,0.6478631,left,0.835362503125,0.34963656349982747,6.4,0,0
3980,shift,color,right,0,1,0.7438681,right,0.835362503125,0.34963656349982747,6.4,0,0
3980,shift,shape,left,1,1,0.3918785,left,0.835362503125,0.34963656349982747,6.4,0,0
3980,shift,shape,left,0,1,1.3198569,left,0.835362503125,0.34963656349982747,6.4,0,0
3980,shift,shape,left,0,1,0.5358674,left,0.835362503125,0.34963656349982747,6.4,0,0
3980,shift,shape,right,0,1,1.2559566,right,0.835362503125,0.34963656349982747,6.4,0,0
3980,shift,color,right,1,1,1.0798984,right,0.835362503125,0.34963656349982747,6.4,0,0
3980,shift,color,left,0,1,0.9518288,left,0.835362503125,0.34963656349982747,6.4,0,0
3980,shift,color,left,0,1,0.3917615,left,0.835362503125,0.34963656349982747,6.4,0,0
3980,shift,color,right,0,1,0.4238969,right,0.835362503125,0.34963656349982747,6.4,0,0
3980,shift,shape,left,1,0,1.0638506,right,0.835362503125,0.34963656349982747,6.4,0,0
3980,shift,color,left,1,1,0.7598622,left,0.835362503125,0.34963656349982747,6.4,0,0
3980,shift,shape,right,1,1,0.631964,right,0.835362503125,0.34963656349982747,6.4,0,0
3980,shift,color,right,1,1,0.9517527,right,0.835362503125,0.34963656349982747,6.4,0,0
3980,shift,color,right,0,1,0.9200033,right,0.835362503125,0.34963656349982747,6.4,0,0
3980,shift,color,left,0,1,0.7117994,left,0.835362503125,0.34963656349982747,6.4,0,0
3980,shift,color,left,0,1,0.8877708,left,0.835362503125,0.34963656349982747,6.4,0,0
3980,shift,shape,right,1,0,1.0478847,left,0.835362503125,0.34963656349982747,6.4,0,0
3980,shift,shape,right,0,1,1.7358978,right,0.835362503125,0.34963656349982747,6.4,0,0
3980,shift,color,right,1,1,1.6558993,right,0.835362503125,0.34963656349982747,6.4,0,0
3980,shift,shape,left,1,1,1.3517564,left,0.835362503125,0.34963656349982747,6.4,0,0
3980,shift,shape,left,0,1,1.1278783,left,0.835362503125,0.34963656349982747,6.4,0,0
3980,shift,color,left,1,1,0.5519706,left,0.835362503125,0.34963656349982747,6.4,0,0
3980,shift,color,left,0,1,0.407755,left,0.835362503125,0.34963656349982747,6.4,0,0
3980,shift,color,left,0,1,0.6318529,left,0.835362503125,0.34963656349982747,6.4,0,0
3980,shift,shape,right,1,0,0.679893,left,0.835362503125,0.34963656349982747,6.4,0,0
3980,shift,shape,right,0,1,1.2718754,right,0.835362503125,0.34963656349982747,6.4,0,0
3980,shift,color,right,1,1,1.0158828,right,0.835362503125,0.34963656349982747,6.4,0,0
3980,shift,color,right,0,1,0.8558825,right,0.835362503125,0.34963656349982747,6.4,0,0
3980,shift,color,left,0,1,1.2078294,left,0.835362503125,0.34963656349982747,6.4,0,0
3980,shift,shape,left,1,1,0.5998708,left,0.835362503125,0.34963656349982747,6.4,0,0
3980,shift,shape,left,0,1,1.0639878,left,0.835362503125,0.34963656349982747,6.4,0,0
3980,shift,shape,left,0,1,2.0397227,left,0.835362503125,0.34963656349982747,6.4,1,0
3980,shift,color,right,1,1,0.7598479,right,0.835362503125,0.34963656349982747,6.4,0,0
3980,shift,shape,right,1,1,0.567945,right,0.835362503125,0.34963656349982747,6.4,0,0
3980,shift,shape,right,0,1,1.3517897,right,0.835362503125,0.34963656349982747,6.4,0,0
3980,shift,color,left,1,1,1.3518745,left,0.835362503125,0.34963656349982747,6.4,0,0
3980,shift,color,right,0,1,0.5999695,right,0.835362503125,0.34963656349982747,6.4,0,0
3980,shift,shape,right,1,1,0.6317395,right,0.835362503125,0.34963656349982747,6.4,0,0
3980,shift,color,left,1,1,0.8079858,left,0.835362503125,0.34963656349982747,6.4,0,0
3980,shift,shape,right,1,1,0.8238927,right,0.835362503125,0.34963656349982747,6.4,0,0
3980,shift,shape,left,0,1,0.5357354,left,0.835362503125,0.34963656349982747,6.4,0,0
3980,shift,color,left,1,1,0.9198588,left,0.835362503125,0.34963656349982747,6.4,0,0
3980,shift,shape,left,1,1,0.6319912,left,0.835362503125,0.34963656349982747,6.4,0,0
3980,shift,color,right,1,1,0.7277453,right,0.835362503125,0.34963656349982747,6.4,0,0
3980,shift,color,right,0,1,0.8078833,right,0.835362503125,0.34963656349982747,6.4,0,0
3980,shift,color,left,0,1,1.1119321,left,0.835362503125,0.34963656349982747,6.4,0,0
3980,shift,shape,right,1,1,0.5678458,right,0.835362503125,0.34963656349982747,6.4,0,0
3980,shift,shape,left,0,1,1.2717681,left,0.835362503125,0.34963656349982747,6.4,0,0
3980,shift,shape,left,0,0,0.8558724,right,0.835362503125,0.34963656349982747,6.4,0,0
3980,shift,shape,right,0,1,0.7278533,right,0.835362503125,0.34963656349982747,6.4,0,0
3982,color,color,left,0,1,0.5371028,left,0.57992501,0.0943673669836911,2,0,0
3982,color,color,left,0,1,0.5358921,left,0.57992501,0.0943673669836911,2,0,0
3982,color,color,right,0,1,0.5358304,right,0.57992501,0.0943673669836911,2,0,0
3982,color,color,left,0,1,0.5038544,left,0.57992501,0.0943673669836911,2,0,0
3982,color,color,left,0,1,0.551825,left,0.57992501,0.0943673669836911,2,0,0
3982,color,color,right,0,1,0.4879264,right,0.57992501,0.0943673669836911,2,0,0
3982,color,color,right,0,1,0.5518202,right,0.57992501,0.0943673669836911,2,0,0
3982,color,color,left,0,1,0.6478233,left,0.57992501,0.0943673669836911,2,0,0
3982,color,color,right,0,1,0.5518742,right,0.57992501,0.0943673669836911,2,0,0
3982,color,color,left,0,1,0.4079193,left,0.57992501,0.0943673669836911,2,0,0
3982,color,color,left,0,0,0.7278648,right,0.57992501,0.0943673669836911,2,0,0
3982,color,color,right,0,1,0.6158886,right,0.57992501,0.0943673669836911,2,0,0
3982,color,color,left,0,1,0.567725,left,0.57992501,0.0943673669836911,2,0,0
3982,color,color,right,0,1,0.6479711,right,0.57992501,0.0943673669836911,2,0,0
3982,color,color,left,0,1,0.64788,left,0.57992501,0.0943673669836911,2,0,0
3982,color,color,right,0,1,0.5997988,right,0.57992501,0.0943673669836911,2,0,0
3982,color,color,right,0,1,0.5999109,right,0.57992501,0.0943673669836911,2,0,0
3982,color,color,right,0,1,0.408001,right,0.57992501,0.0943673669836911,2,0,0
3982,color,color,left,0,1,0.7597599,left,0.57992501,0.0943673669836911,2,0,0
3982,color,color,right,0,1,0.711832,right,0.57992501,0.0943673669836911,2,0,0
3982,shape,shape,left,0,1,0.7438416,left,0.656659865,0.18581820702765908,2,0,0
3982,shape,shape,left,0,1,0.5997745,left,0.656659865,0.18581820702765908,2,0,0
3982,shape,shape,left,0,1,0.5038906,left,0.656659865,0.18581820702765908,2,0,0
3982,shape,shape,left,0,1,0.5039341,left,0.656659865,0.18581820702765908,2,0,0
3982,shape,shape,left,0,1,0.4399177,left,0.656659865,0.18581820702765908,2,0,0
3982,shape,shape,right,0,1,0.7117823,right,0.656659865,0.18581820702765908,2,0,0
3982,shape,shape,left,0,1,0.7437659,left,0.656659865,0.18581820702765908,2,0,0
3982,shape,shape,left,0,1,0.6320159,left,0.656659865,0.18581820702765908,2,0,0
3982,shape,shape,left,0,1,0.599813,left,0.656659865,0.18581820702765908,2,0,0
3982,shape,shape,right,0,1,0.5678329,right,0.656659865,0.18581820702765908,2,0,0
3982,shape,shape,left,0,1,0.7919108,left,0.656659865,0.18581820702765908,2,0,0
3982,shape,shape,right,0,1,0.6318302,right,0.656659865,0.18581820702765908,2,0,0
3982,shape,shape,right,0,1,0.5198839,right,0.656659865,0.18581820702765908,2,0,0
3982,shape,shape,right,0,1,0.4398802,right,0.656659865,0.18581820702765908,2,0,0
3982,shape,shape,right,0,1,0.58387,right,0.656659865,0.18581820702765908,2,0,0
3982,shape,shape,right,0,1,0.6798368,right,0.656659865,0.18581820702765908,2,0,0
3982,shape,shape,left,0,1,1.2398417,left,0.656659865,0.18581820702765908,2,1,0
3982,shape,shape,right,0,1,0.9199007,right,0.656659865,0.18581820702765908,2,0,0
3982,shape,shape,right,0,1,0.7598342,right,0.656659865,0.18581820702765908,2,0,0
3982,shape,shape,right,0,1,0.5198403,right,0.656659865,0.18581820702765908,2,0,0
3982,shift,color,left,1,1,0.7119243,left,0.79411040625,0.26738077699156615,6.4,0,0
3982,shift,color,right,0,1,0.8238169,right,0.79411040625,0.26738077699156615,6.4,0,0
3982,shift,shape,left,1,1,0.5838737,left,0.79411040625,0.26738077699156615,6.4,0,0
3982,shift,shape,right,0,1,0.6958644,right,0.79411040625,0.26738077699156615,6.4,0,0
3982,shift,shape,left,0,1,0.5838177,left,0.79411040625,0.26738077699156615,6.4,0,0
3982,shift,shape,right,0,1,0.7598958,right,0.79411040625,0.26738077699156615,6.4,0,0
3982,shift,color,right,1,1,0.8239098,right,0.79411040625,0.26738077699156615,6.4,0,0
3982,shift,shape,left,1,1,1.063814,left,0.79411040625,0.26738077699156615,6.4,0,0
3982,shift,color,left,1,1,0.6157793,left,0.79411040625,0.26738077699156615,6.4,0,0
3982,shift,color,left,0,1,0.6799675,left,0.79411040625,0.26738077699156615,6.4,0,0
3982,shift,color,left,0,1,0.4398257,left,0.79411040625,0.26738077699156615,6.4,0,0
3982,shift,shape,right,1,1,0.7918823,right,0.79411040625,0.26738077699156615,6.4,0,0
3982,shift,shape,right,0,1,0.4877341,right,0.79411040625,0.26738077699156615,6.4,0,0
3982,shift,color,right,1,1,0.7759701,right,0.79411040625,0.26738077699156615,6.4,0,0
3982,shift,shape,right,1,1,1.3678714,right,0.79411040625,0.26738077699156615,6.4,0,0
3982,shift,shape,right,0,1,0.7597731,right,0.79411040625,0.26738077699156615,6.4,0,0
3982,shift,shape,right,0,1,0.4078942,right,0.79411040625,0.26738077699156615,6.4,0,0
3982,shift,color,left,1,1,0.6799016,left,0.79411040625,0.26738077699156615,6.4,0,0
3982,shift,color,right,0,1,0.6958318,right,0.79411040625,0.26738077699156615,6.4,0,0
3982,shift,color,right,0,1,0.4878963,right,0.79411040625,0.26738077699156615,6.4,0,0
3982,shift,color,right,0,1,0.5198629,right,0.79411040625,0.26738077699156615,6.4,0,0
3982,shift,shape,left,1,1,0.663798,left,0.79411040625,0.26738077699156615,6.4,0,0
3982,shift,color,left,1,1,0.6958593,left,0.79411040625,0.26738077699156615,6.4,0,0
