subject_id,block_name,trial_location,trial_similarity,trial_corr_resp,resp_corr,resp_rt,resp_value,mean_rt,sd_rt,exclude_thresh,exclude_trial,exclude_part
3961,nb1TestingBlock,11,0,left,1,0.5895281,left,0.7621979233333334,0.41022242926608243,3,0,0
3961,nb1TestingBlock,7,4,right,1,0.5288654,right,0.7621979233333334,0.41022242926608243,3,0,0
3961,nb1TestingBlock,8,1,right,0,0.6772276,left,0.7621979233333334,0.41022242926608243,3,0,0
3961,nb1TestingBlock,12,4,right,1,0.6839934,right,0.7621979233333334,0.41022242926608243,3,0,0
3961,nb1TestingBlock,12,0,left,1,0.6140842,left,0.7621979233333334,0.41022242926608243,3,0,0
3961,nb1TestingBlock,0,3,right,1,0.7048067,right,0.7621979233333334,0.41022242926608243,3,0,0
3961,nb1TestingBlock,0,0,left,1,1.2417666,left,0.7621979233333334,0.41022242926608243,3,0,0
3961,nb1TestingBlock,1,1,right,1,0.7096523,right,0.7621979233333334,0.41022242926608243,3,0,0
3961,nb1TestingBlock,3,2,right,1,0.746131,right,0.7621979233333334,0.41022242926608243,3,0,0
3961,nb1TestingBlock,2,1,right,1,0.9602554,right,0.7621979233333334,0.41022242926608243,3,0,0
3961,nb1TestingBlock,6,4,right,1,0.6680944,right,0.7621979233333334,0.41022242926608243,3,0,0
3961,nb1TestingBlock,6,0,left,1,0.5921143,left,0.7621979233333334,0.41022242926608243,3,0,0
3961,nb1TestingBlock,6,0,left,1,0.6998903,left,0.7621979233333334,0.41022242926608243,3,0,0
3961,nb1TestingBlock,10,4,right,1,0.5544778,right,0.7621979233333334,0.41022242926608243,3,0,0
3961,nb1TestingBlock,8,2,right,1,0.5642476,right,0.7621979233333334,0.41022242926608243,3,0,0
3961,nb1TestingBlock,8,0,left,1,0.5423079,left,0.7621979233333334,0.41022242926608243,3,0,0
3961,nb1TestingBlock,6,2,right,1,0.7286372,right,0.7621979233333334,0.41022242926608243,3,0,0
3961,nb1TestingBlock,9,3,right,1,0.6542652,right,0.7621979233333334,0.41022242926608243,3,0,0
3961,nb1TestingBlock,9,0,left,1,0.9350026,left,0.7621979233333334,0.41022242926608243,3,0,0
3961,nb1TestingBlock,5,4,right,1,2.7670452,right,0.7621979233333334,0.41022242926608243,3,1,0
3961,nb1TestingBlock,4,1,right,1,0.9978305,right,0.7621979233333334,0.41022242926608243,3,0,0
3961,nb1TestingBlock,4,0,left,1,0.6512128,left,0.7621979233333334,0.41022242926608243,3,0,0
3961,nb1TestingBlock,2,2,right,1,0.7108876,right,0.7621979233333334,0.41022242926608243,3,0,0
3961,nb1TestingBlock,14,3,right,1,0.78923,right,0.7621979233333334,0.41022242926608243,3,0,0
3961,nb1TestingBlock,11,3,right,1,0.5694493,right,0.7621979233333334,0.41022242926608243,3,0,0
3961,nb1TestingBlock,13,2,right,1,0.589861,right,0.7621979233333334,0.41022242926608243,3,0,0
3961,nb1TestingBlock,13,0,left,1,0.5391795,left,0.7621979233333334,0.41022242926608243,3,0,0
3961,nb1TestingBlock,14,1,right,1,0.5915894,right,0.7621979233333334,0.41022242926608243,3,0,0
3961,nb1TestingBlock,2,3,right,1,0.6342327,right,0.7621979233333334,0.41022242926608243,3,0,0
3961,nb1TestingBlock,2,0,left,1,0.6300717,left,0.7621979233333334,0.41022242926608243,3,0,0
3961,nb2TestingBlock,3,0,left,1,0.6958431,left,1.9818194622222223,1.012823644251362,9,0,0
3961,nb2TestingBlock,9,3,right,1,1.2189847,right,1.9818194622222223,1.012823644251362,9,0,0
3961,nb2TestingBlock,2,1,right,1,2.3134601,right,1.9818194622222223,1.012823644251362,9,0,0
3961,nb2TestingBlock,9,0,left,1,3.6251621,left,1.9818194622222223,1.012823644251362,9,0,0
3961,nb2TestingBlock,4,2,right,0,1.2081849,left,1.9818194622222223,1.012823644251362,9,0,0
3961,nb2TestingBlock,10,1,right,1,1.4170052,right,1.9818194622222223,1.012823644251362,9,0,0
3961,nb2TestingBlock,6,2,right,1,0.8885545,right,1.9818194622222223,1.012823644251362,9,0,0
3961,nb2TestingBlock,6,4,right,1,1.312865,right,1.9818194622222223,1.012823644251362,9,0,0
3961,nb2TestingBlock,7,1,right,1,0.7599609,right,1.9818194622222223,1.012823644251362,9,0,0
3961,nb2TestingBlock,6,0,left,0,0.7610573,right,1.9818194622222223,1.012823644251362,9,0,0
3961,nb2TestingBlock,5,2,right,0,0.8251272,left,1.9818194622222223,1.012823644251362,9,0,0
3961,nb2TestingBlock,10,4,right,1,2.0852269,right,1.9818194622222223,1.012823644251362,9,0,0
3961,nb2TestingBlock,2,3,right,1,1.2410243,right,1.9818194622222223,1.012823644251362,9,0,0
3961,nb2TestingBlock,13,3,right,1,2.713186,right,1.9818194622222223,1.012823644251362,9,0,0
3961,nb2TestingBlock,3,1,right,0,1.0969727,left,1.9818194622222223,1.012823644251362,9,0,0
3961,nb2TestingBlock,1,3,right,1,0.8891679,right,1.9818194622222223,1.012823644251362,9,0,0
3961,nb2TestingBlock,3,0,left,1,1.1204104,left,1.9818194622222223,1.012823644251362,9,0,0
3961,nb2TestingBlock,1,0,left,0,0.841194,right,1.9818194622222223,1.012823644251362,9,0,0
3961,nb2TestingBlock,4,1,right,0,1.3532429,left,1.9818194622222223,1.012823644251362,9,0,0
3961,nb2TestingBlock,1,0,left,0,0.7939068,right,1.9818194622222223,1.012823644251362,9,0,0
3961,nb2TestingBlock,4,0,left,1,4.6316997,left,1.9818194622222223,1.012823644251362,9,0,0
3961,nb2TestingBlock,5,4,right,0,3.832768,left,1.9818194622222223,1.012823644251362,9,0,0
3961,nb2TestingBlock,0,4,right,1,4.7444448,right,1.9818194622222223,1.012823644251362,9,0,0
3961,nb2TestingBlock,5,0,left,1,0.9046525,left,1.9818194622222223,1.012823644251362,9,0,0
3961,nb2TestingBlock,3,3,right,0,2.2760379,left,1.9818194622222223,1.012823644251362,9,0,0
3961,nb2TestingBlock,1,4,right,1,2.2491537,right,1.9818194622222223,1.012823644251362,9,0,0
3961,nb2TestingBlock,1,2,right,0,2.1847947,left,1.9818194622222223,1.012823644251362,9,0,0
3961,nb2TestingBlock,12,4,right,1,1.0652931,right,1.9818194622222223,1.012823644251362,9,0,0
3961,nb2TestingBlock,14,2,right,1,1.7525071,right,1.9818194622222223,1.012823644251362,9,0,0
3961,nb2TestingBlock,11,1,right,0,1.8165318,left,1.9818194622222223,1.012823644251362,9,0,0
3961,nb2TestingBlock,14,0,left,1,1.2092286,left,1.9818194622222223,1.012823644251362,9,0,0
3961,nb2TestingBlock,14,3,right,1,1.4330202,right,1.9818194622222223,1.012823644251362,9,0,0
3961,nb2TestingBlock,12,2,right,1,1.2727301,right,1.9818194622222223,1.012823644251362,9,0,0
3961,nb2TestingBlock,0,1,right,1,1.5606771,right,1.9818194622222223,1.012823644251362,9,0,0
3961,nb2TestingBlock,8,4,right,1,1.0654269,right,1.9818194622222223,1.012823644251362,9,0,0
3961,nb2TestingBlock,0,0,left,0,3.2252619,right,1.9818194622222223,1.012823644251362,9,0,0
3961,nb2TestingBlock,11,3,right,0,1.2571038,left,1.9818194622222223,1.012823644251362,9,0,0
3961,nb2TestingBlock,13,2,right,0,0.9686658,left,1.9818194622222223,1.012823644251362,9,0,0
3961,nb2TestingBlock,11,0,left,0,3.0569669,right,1.9818194622222223,1.012823644251362,9,0,0
3961,nb2TestingBlock,11,2,right,0,2.5043362,left,1.9818194622222223,1.012823644251362,9,0,0
3961,nb2TestingBlock,11,0,left,0,1.4647229,right,1.9818194622222223,1.012823644251362,9,0,0
3961,nb2TestingBlock,8,3,right,1,0.9204889,right,1.9818194622222223,1.012823644251362,9,0,0
3961,nb2TestingBlock,9,2,right,1,3.656662,right,1.9818194622222223,1.012823644251362,9,0,0
3961,nb2TestingBlock,9,1,right,0,1.6405759,left,1.9818194622222223,1.012823644251362,9,0,0
3961,nb2TestingBlock,7,2,right,1,1.0028987,right,1.9818194622222223,1.012823644251362,9,0,0
3961,nb2TestingBlock,9,0,left,1,2.1509258,left,1.9818194622222223,1.012823644251362,9,0,0
3961,nb2TestingBlock,7,0,left,0,1.1924487,right,1.9818194622222223,1.012823644251362,9,0,0
3961,nb2TestingBlock,8,1,right,0,2.2337920000000002,left,1.9818194622222223,1.012823644251362,9,0,0
3961,nb2TestingBlock,3,4,right,1,0.728302,right,1.9818194622222223,1.012823644251362,9,0,0
3961,nb2TestingBlock,8,0,left,0,4.0169987,right,1.9818194622222223,1.012823644251362,9,0,0
3961,nb2TestingBlock,6,3,right,1,2.3131442,right,1.9818194622222223,1.012823644251362,9,0,0
3961,nb2TestingBlock,10,2,right,1,3.7051209,right,1.9818194622222223,1.012823644251362,9,0,0
3961,nb2TestingBlock,6,0,left,1,2.0891172,left,1.9818194622222223,1.012823644251362,9,0,0
3961,nb2TestingBlock,10,0,left,1,2.8082445,left,1.9818194622222223,1.012823644251362,9,0,0
3961,nb2TestingBlock,5,1,right,0,3.8329239,left,1.9818194622222223,1.012823644251362,9,0,0
3961,nb2TestingBlock,10,0,left,0,2.6335434,right,1.9818194622222223,1.012823644251362,9,0,0
3961,nb2TestingBlock,5,0,left,1,3.5449038,left,1.9818194622222223,1.012823644251362,9,0,0
3961,nb2TestingBlock,7,3,right,0,2.0414478,left,1.9818194622222223,1.012823644251362,9,0,0
3961,nb2TestingBlock,3,2,right,1,2.0888632,right,1.9818194622222223,1.012823644251362,9,0,0
3961,nb2TestingBlock,10,3,right,1,2.7124159,right,1.9818194622222223,1.012823644251362,9,0,0
3961,nb2TestingBlock,7,4,right,0,2.6811471,left,1.9818194622222223,1.012823644251362,9,0,0
3961,nb2TestingBlock,14,4,right,1,1.3683838,right,1.9818194622222223,1.012823644251362,9,0,0
3961,nb2TestingBlock,6,1,right,1,2.505215,right,1.9818194622222223,1.012823644251362,9,0,0
3961,nb2TestingBlock,14,0,left,0,2.8887375,right,1.9818194622222223,1.012823644251362,9,0,0
3961,nb2TestingBlock,2,4,right,1,2.0080081,right,1.9818194622222223,1.012823644251362,9,0,0
3961,nb2TestingBlock,13,1,right,0,2.2483853,left,1.9818194622222223,1.012823644251362,9,0,0
3961,nb2TestingBlock,1,1,right,0,2.1849805,left,1.9818194622222223,1.012823644251362,9,0,0
3961,nb2TestingBlock,0,2,right,1,1.8977796,right,1.9818194622222223,1.012823644251362,9,0,0
3961,nb2TestingBlock,4,3,right,0,1.5611378,left,1.9818194622222223,1.012823644251362,9,0,0
3961,nb2TestingBlock,4,4,right,1,1.577057,right,1.9818194622222223,1.012823644251362,9,0,0
3961,nb2TestingBlock,8,4,right,1,1.4480762,right,1.9818194622222223,1.012823644251362,9,0,0
3961,nb2TestingBlock,4,0,left,1,1.4486457,left,1.9818194622222223,1.012823644251362,9,0,0
3961,nb2TestingBlock,8,0,left,1,1.2883093,left,1.9818194622222223,1.012823644251362,9,0,0
3961,nb2TestingBlock,2,2,right,1,0.9850983,right,1.9818194622222223,1.012823644251362,9,0,0
3961,nb2TestingBlock,5,3,right,1,2.2769359,right,1.9818194622222223,1.012823644251362,9,0,0
3961,nb2TestingBlock,2,0,left,1,2.2805516,left,1.9818194622222223,1.012823644251362,9,0,0
3961,nb2TestingBlock,2,3,right,0,1.6894687,left,1.9818194622222223,1.012823644251362,9,0,0
3961,nb2TestingBlock,13,4,right,1,0.7607353,right,1.9818194622222223,1.012823644251362,9,0,0
3961,nb2TestingBlock,2,0,left,0,1.4327282,right,1.9818194622222223,1.012823644251362,9,0,0
3961,nb2TestingBlock,13,0,left,0,1.8011804,right,1.9818194622222223,1.012823644251362,9,0,0
3961,nb2TestingBlock,14,3,right,1,3.9934136,right,1.9818194622222223,1.012823644251362,9,0,0
3961,nb2TestingBlock,13,0,left,1,1.3209997,left,1.9818194622222223,1.012823644251362,9,0,0
3961,nb2TestingBlock,12,2,right,1,4.728972,right,1.9818194622222223,1.012823644251362,9,0,0
3961,nb2TestingBlock,12,1,right,0,1.2251275,left,1.9818194622222223,1.012823644251362,9,0,0
3961,nb2TestingBlock,1,4,right,1,2.4723834,right,1.9818194622222223,1.012823644251362,9,0,0
3961,nb2TestingBlock,12,0,left,1,1.9443764,left,1.9818194622222223,1.012823644251362,9,0,0
3961,nb2TestingBlock,0,1,right,0,1.497306,left,1.9818194622222223,1.012823644251362,9,0,0
3961,nb2TestingBlock,12,0,left,1,1.7046474,left,1.9818194622222223,1.012823644251362,9,0,0
3961,nb2TestingBlock,0,0,left,0,2.5372262,right,1.9818194622222223,1.012823644251362,9,0,0
3961,nb2TestingBlock,12,0,left,0,3.65736,right,1.9818194622222223,1.012823644251362,9,0,0
3962,nb1TestingBlock,11,0,left,1,0.8444315,left,0.5671231333333333,0.1868768177871268,3,0,0
3962,nb1TestingBlock,7,4,right,1,0.5169069,right,0.5671231333333333,0.1868768177871268,3,0,0
3962,nb1TestingBlock,8,1,right,1,0.6042415,right,0.5671231333333333,0.1868768177871268,3,0,0
3962,nb1TestingBlock,12,4,right,1,0.5958845,right,0.5671231333333333,0.1868768177871268,3,0,0
3962,nb1TestingBlock,12,0,left,1,0.6834904,left,0.5671231333333333,0.1868768177871268,3,0,0
3962,nb1TestingBlock,0,3,right,1,0.5181186,right,0.5671231333333333,0.1868768177871268,3,0,0
3962,nb1TestingBlock,0,0,left,1,0.8902664,left,0.5671231333333333,0.1868768177871268,3,0,0
3962,nb1TestingBlock,1,1,right,1,0.6791352,right,0.5671231333333333,0.1868768177871268,3,0,0
3962,nb1TestingBlock,3,2,right,1,0.7467196,right,0.5671231333333333,0.1868768177871268,3,0,0
3962,nb1TestingBlock,2,1,right,1,0.5293804,right,0.5671231333333333,0.1868768177871268,3,0,0
3962,nb1TestingBlock,6,4,right,1,0.5972572,right,0.5671231333333333,0.1868768177871268,3,0,0
3962,nb1TestingBlock,6,0,left,1,0.4419073,left,0.5671231333333333,0.1868768177871268,3,0,0
3962,nb1TestingBlock,6,0,left,1,0.7568999,left,0.5671231333333333,0.1868768177871268,3,0,0
3962,nb1TestingBlock,10,4,right,1,0.382236,right,0.5671231333333333,0.1868768177871268,3,0,0
3962,nb1TestingBlock,8,2,right,1,0.5046409,right,0.5671231333333333,0.1868768177871268,3,0,0
3962,nb1TestingBlock,8,0,left,1,0.5617686,left,0.5671231333333333,0.1868768177871268,3,0,0
3962,nb1TestingBlock,6,2,right,1,0.4301478,right,0.5671231333333333,0.1868768177871268,3,0,0
3962,nb1TestingBlock,9,3,right,1,0.7801828,right,0.5671231333333333,0.1868768177871268,3,0,0
3962,nb1TestingBlock,9,0,left,1,0.5065781,left,0.5671231333333333,0.1868768177871268,3,0,0
3962,nb1TestingBlock,5,4,right,1,0.3840518,right,0.5671231333333333,0.1868768177871268,3,0,0
3962,nb1TestingBlock,4,1,right,0,1.1290023,left,0.5671231333333333,0.1868768177871268,3,1,0
3962,nb1TestingBlock,4,0,left,1,0.3724154,left,0.5671231333333333,0.1868768177871268,3,0,0
3962,nb1TestingBlock,2,2,right,1,0.3681336,right,0.5671231333333333,0.1868768177871268,3,0,0
3962,nb1TestingBlock,14,3,right,1,0.4692045,right,0.5671231333333333,0.1868768177871268,3,0,0
3962,nb1TestingBlock,11,3,right,1,0.3459709,right,0.5671231333333333,0.1868768177871268,3,0,0
3962,nb1TestingBlock,13,2,right,1,0.4333962,right,0.5671231333333333,0.1868768177871268,3,0,0
3962,nb1TestingBlock,13,0,left,1,0.2495939,left,0.5671231333333333,0.1868768177871268,3,0,0
3962,nb1TestingBlock,14,1,right,1,0.5401132,right,0.5671231333333333,0.1868768177871268,3,0,0
3962,nb1TestingBlock,2,3,right,1,0.6002223,right,0.5671231333333333,0.1868768177871268,3,0,0
3962,nb1TestingBlock,2,0,left,1,0.5513963,left,0.5671231333333333,0.1868768177871268,3,0,0
3962,nb2TestingBlock,3,0,left,1,0.6814843,left,0.6549339477777778,0.18324114411868647,9,0,0
3962,nb2TestingBlock,9,3,right,1,0.7921024,right,0.6549339477777778,0.18324114411868647,9,0,0
3962,nb2TestingBlock,2,1,right,1,0.8543936,right,0.6549339477777778,0.18324114411868647,9,0,0
3962,nb2TestingBlock,9,0,left,1,0.6755095,left,0.6549339477777778,0.18324114411868647,9,0,0
3962,nb2TestingBlock,4,2,right,1,0.6057266,right,0.6549339477777778,0.18324114411868647,9,0,0
3962,nb2TestingBlock,10,1,right,1,0.4880947,right,0.6549339477777778,0.18324114411868647,9,0,0
3962,nb2TestingBlock,6,2,right,1,0.5934817,right,0.6549339477777778,0.18324114411868647,9,0,0
3962,nb2TestingBlock,6,4,right,1,0.4956713,right,0.6549339477777778,0.18324114411868647,9,0,0
3962,nb2TestingBlock,7,1,right,0,0.6024792,left,0.6549339477777778,0.18324114411868647,9,0,0
3962,nb2TestingBlock,6,0,left,1,0.5525939,left,0.6549339477777778,0.18324114411868647,9,0,0
3962,nb2TestingBlock,5,2,right,1,0.9174797,right,0.6549339477777778,0.18324114411868647,9,0,0
3962,nb2TestingBlock,10,4,right,1,0.5581819,right,0.6549339477777778,0.18324114411868647,9,0,0
3962,nb2TestingBlock,2,3,right,1,0.7746354,right,0.6549339477777778,0.18324114411868647,9,0,0
3962,nb2TestingBlock,13,3,right,1,0.5152413,right,0.6549339477777778,0.18324114411868647,9,0,0
3962,nb2TestingBlock,3,1,right,1,0.6704193,right,0.6549339477777778,0.18324114411868647,9,0,0
3962,nb2TestingBlock,1,3,right,1,0.7187118,right,0.6549339477777778,0.18324114411868647,9,0,0
3962,nb2TestingBlock,3,0,left,1,0.5982681,left,0.6549339477777778,0.18324114411868647,9,0,0
3962,nb2TestingBlock,1,0,left,1,0.4463906,left,0.6549339477777778,0.18324114411868647,9,0,0
3962,nb2TestingBlock,4,1,right,1,0.6165884,right,0.6549339477777778,0.18324114411868647,9,0,0
3962,nb2TestingBlock,1,0,left,1,0.8662946,left,0.6549339477777778,0.18324114411868647,9,0,0
3962,nb2TestingBlock,4,0,left,0,0.9093211,right,0.6549339477777778,0.18324114411868647,9,0,0
3962,nb2TestingBlock,5,4,right,1,0.7736516,right,0.6549339477777778,0.18324114411868647,9,0,0
3962,nb2TestingBlock,0,4,right,1,1.0102982,right,0.6549339477777778,0.18324114411868647,9,0,0
3962,nb2TestingBlock,5,0,left,1,0.6009361,left,0.6549339477777778,0.18324114411868647,9,0,0
3962,nb2TestingBlock,3,3,right,0,0.6651128,left,0.6549339477777778,0.18324114411868647,9,0,0
3962,nb2TestingBlock,1,4,right,1,0.8049161,right,0.6549339477777778,0.18324114411868647,9,0,0
3962,nb2TestingBlock,1,2,right,1,0.4163315,right,0.6549339477777778,0.18324114411868647,9,0,0
3962,nb2TestingBlock,12,4,right,1,0.5064959,right,0.6549339477777778,0.18324114411868647,9,0,0
3962,nb2TestingBlock,14,2,right,1,0.3086154,right,0.6549339477777778,0.18324114411868647,9,0,0
3962,nb2TestingBlock,11,1,right,1,0.5886558,right,0.6549339477777778,0.18324114411868647,9,0,0
3962,nb2TestingBlock,14,0,left,1,0.4372244,left,0.6549339477777778,0.18324114411868647,9,0,0
3962,nb2TestingBlock,14,3,right,1,0.6386796,right,0.6549339477777778,0.18324114411868647,9,0,0
3962,nb2TestingBlock,12,2,right,0,0.7275157,left,0.6549339477777778,0.18324114411868647,9,0,0
3962,nb2TestingBlock,0,1,right,0,1.0401554,left,0.6549339477777778,0.18324114411868647,9,0,0
3962,nb2TestingBlock,8,4,right,1,0.6487706,right,0.6549339477777778,0.18324114411868647,9,0,0
3962,nb2TestingBlock,0,0,left,0,0.9130026,right,0.6549339477777778,0.18324114411868647,9,0,0
3962,nb2TestingBlock,11,3,right,1,0.6066473,right,0.6549339477777778,0.18324114411868647,9,0,0
3962,nb2TestingBlock,13,2,right,1,0.3444433,right,0.6549339477777778,0.18324114411868647,9,0,0
3962,nb2TestingBlock,11,0,left,0,0.3242623,right,0.6549339477777778,0.18324114411868647,9,0,0
3962,nb2TestingBlock,11,2,right,1,0.6895418,right,0.6549339477777778,0.18324114411868647,9,0,0
3962,nb2TestingBlock,11,0,left,0,0.9047973,right,0.6549339477777778,0.18324114411868647,9,0,0
3962,nb2TestingBlock,8,3,right,0,0.8363362,left,0.6549339477777778,0.18324114411868647,9,0,0
3962,nb2TestingBlock,9,2,right,0,0.8943364,left,0.6549339477777778,0.18324114411868647,9,0,0
3962,nb2TestingBlock,9,1,right,0,0.9074479,left,0.6549339477777778,0.18324114411868647,9,0,0
3962,nb2TestingBlock,7,2,right,1,0.8215435,right,0.6549339477777778,0.18324114411868647,9,0,0
3962,nb2TestingBlock,9,0,left,0,1.0601351,right,0.6549339477777778,0.18324114411868647,9,0,0
3962,nb2TestingBlock,7,0,left,0,0.6648322,right,0.6549339477777778,0.18324114411868647,9,0,0
3962,nb2TestingBlock,8,1,right,0,0.6921066,left,0.6549339477777778,0.18324114411868647,9,0,0
3962,nb2TestingBlock,3,4,right,0,0.7391472,left,0.6549339477777778,0.18324114411868647,9,0,0
3962,nb2TestingBlock,8,0,left,1,0.84285620000000006,left,0.6549339477777778,0.18324114411868647,9,0,0
3962,nb2TestingBlock,6,3,right,1,0.7449942,right,0.6549339477777778,0.18324114411868647,9,0,0
3962,nb2TestingBlock,10,2,right,1,0.4364653,right,0.6549339477777778,0.18324114411868647,9,0,0
3962,nb2TestingBlock,6,0,left,1,0.9907606,left,0.6549339477777778,0.18324114411868647,9,0,0
3962,nb2TestingBlock,10,0,left,1,0.5103043,left,0.6549339477777778,0.18324114411868647,9,0,0
3962,nb2TestingBlock,5,1,right,1,0.6223222,right,0.6549339477777778,0.18324114411868647,9,0,0
3962,nb2TestingBlock,10,0,left,0,0.6529591,right,0.6549339477777778,0.18324114411868647,9,0,0
3962,nb2TestingBlock,5,0,left,1,0.6193066,left,0.6549339477777778,0.18324114411868647,9,0,0
3962,nb2TestingBlock,7,3,right,1,0.3544525,right,0.6549339477777778,0.18324114411868647,9,0,0
3962,nb2TestingBlock,3,2,right,1,0.6392408,right,0.6549339477777778,0.18324114411868647,9,0,0
3962,nb2TestingBlock,10,3,right,1,0.4063388,right,0.6549339477777778,0.18324114411868647,9,0,0
3962,nb2TestingBlock,7,4,right,1,0.6734426,right,0.6549339477777778,0.18324114411868647,9,0,0
3962,nb2TestingBlock,14,4,right,1,1.0395167,right,0.6549339477777778,0.18324114411868647,9,0,0
3962,nb2TestingBlock,6,1,right,0,0.7127632,left,0.6549339477777778,0.18324114411868647,9,0,0
3962,nb2TestingBlock,14,0,left,1,0.6465931,left,0.6549339477777778,0.18324114411868647,9,0,0
3962,nb2TestingBlock,2,4,right,1,0.5766815,right,0.6549339477777778,0.18324114411868647,9,0,0
3962,nb2TestingBlock,13,1,right,0,0.4106944,left,0.6549339477777778,0.18324114411868647,9,0,0
3962,nb2TestingBlock,1,1,right,0,0.7468856,left,0.6549339477777778,0.18324114411868647,9,0,0
3962,nb2TestingBlock,0,2,right,1,0.6603525,right,0.6549339477777778,0.18324114411868647,9,0,0
3962,nb2TestingBlock,4,3,right,1,0.8530517,right,0.6549339477777778,0.18324114411868647,9,0,0
3962,nb2TestingBlock,4,4,right,1,0.6111131,right,0.6549339477777778,0.18324114411868647,9,0,0
3962,nb2TestingBlock,8,4,right,1,0.690227,right,0.6549339477777778,0.18324114411868647,9,0,0
3962,nb2TestingBlock,4,0,left,1,0.4350681,left,0.6549339477777778,0.18324114411868647,9,0,0
3962,nb2TestingBlock,8,0,left,1,0.47926,left,0.6549339477777778,0.18324114411868647,9,0,0
3962,nb2TestingBlock,2,2,right,1,0.4704368,right,0.6549339477777778,0.18324114411868647,9,0,0
3962,nb2TestingBlock,5,3,right,1,0.7261652,right,0.6549339477777778,0.18324114411868647,9,0,0
3962,nb2TestingBlock,2,0,left,1,0.5768536,left,0.6549339477777778,0.18324114411868647,9,0,0
3962,nb2TestingBlock,2,3,right,0,0.4740091,left,0.6549339477777778,0.18324114411868647,9,0,0
3962,nb2TestingBlock,13,4,right,1,0.6466598,right,0.6549339477777778,0.18324114411868647,9,0,0
3962,nb2TestingBlock,2,0,left,1,0.5608057,left,0.6549339477777778,0.18324114411868647,9,0,0
3962,nb2TestingBlock,13,0,left,0,0.3043938,right,0.6549339477777778,0.18324114411868647,9,0,0
3962,nb2TestingBlock,14,3,right,1,0.7971232,right,0.6549339477777778,0.18324114411868647,9,0,0
3962,nb2TestingBlock,13,0,left,1,0.6295209,left,0.6549339477777778,0.18324114411868647,9,0,0
3962,nb2TestingBlock,12,2,right,1,0.7321798,right,0.6549339477777778,0.18324114411868647,9,0,0
3962,nb2TestingBlock,12,1,right,1,0.3953086,right,0.6549339477777778,0.18324114411868647,9,0,0
3962,nb2TestingBlock,1,4,right,0,0.5664449,left,0.6549339477777778,0.18324114411868647,9,0,0
3962,nb2TestingBlock,12,0,left,1,0.6565834,left,0.6549339477777778,0.18324114411868647,9,0,0
3962,nb2TestingBlock,0,1,right,1,0.5707108,right,0.6549339477777778,0.18324114411868647,9,0,0
3962,nb2TestingBlock,12,0,left,0,0.6503664,right,0.6549339477777778,0.18324114411868647,9,0,0
3962,nb2TestingBlock,0,0,left,1,1.0349934,left,0.6549339477777778,0.18324114411868647,9,0,0
3962,nb2TestingBlock,12,0,left,1,0.2968416,left,0.6549339477777778,0.18324114411868647,9,0,0
3965,nb1TestingBlock,11,0,left,1,0.5249919,left,0.72449803,0.19972147480624483,3,0,0
3965,nb1TestingBlock,7,4,right,1,0.5981643,right,0.72449803,0.19972147480624483,3,0,0
3965,nb1TestingBlock,8,1,right,0,0.7954612,left,0.72449803,0.19972147480624483,3,0,0
3965,nb1TestingBlock,12,4,right,1,0.9155504,right,0.72449803,0.19972147480624483,3,0,0
3965,nb1TestingBlock,12,0,left,1,0.5874093,left,0.72449803,0.19972147480624483,3,0,0
3965,nb1TestingBlock,0,3,right,1,0.7851854,right,0.72449803,0.19972147480624483,3,0,0
3965,nb1TestingBlock,0,0,left,1,0.7786236,left,0.72449803,0.19972147480624483,3,0,0
3965,nb1TestingBlock,1,1,right,1,0.8796804,right,0.72449803,0.19972147480624483,3,0,0
3965,nb1TestingBlock,3,2,right,1,1.1234287,right,0.72449803,0.19972147480624483,3,0,0
3965,nb1TestingBlock,2,1,right,0,1.2707032,left,0.72449803,0.19972147480624483,3,0,0
3965,nb1TestingBlock,6,4,right,1,0.6128676,right,0.72449803,0.19972147480624483,3,0,0
3965,nb1TestingBlock,6,0,left,1,0.5585256,left,0.72449803,0.19972147480624483,3,0,0
3965,nb1TestingBlock,6,0,left,1,0.4679966,left,0.72449803,0.19972147480624483,3,0,0
3965,nb1TestingBlock,10,4,right,1,0.4241061,right,0.72449803,0.19972147480624483,3,0,0
3965,nb1TestingBlock,8,2,right,1,0.8497703,right,0.72449803,0.19972147480624483,3,0,0
3965,nb1TestingBlock,8,0,left,1,0.5175709,left,0.72449803,0.19972147480624483,3,0,0
3965,nb1TestingBlock,6,2,right,1,0.6182314,right,0.72449803,0.19972147480624483,3,0,0
3965,nb1TestingBlock,9,3,right,1,0.4790425,right,0.72449803,0.19972147480624483,3,0,0
3965,nb1TestingBlock,9,0,left,1,0.6275903,left,0.72449803,0.19972147480624483,3,0,0
3965,nb1TestingBlock,5,4,right,1,0.7302794,right,0.72449803,0.19972147480624483,3,0,0
3965,nb1TestingBlock,4,1,right,1,1.0306029,right,0.72449803,0.19972147480624483,3,0,0
3965,nb1TestingBlock,4,0,left,1,0.5655031,left,0.72449803,0.19972147480624483,3,0,0
3965,nb1TestingBlock,2,2,right,1,0.7313983,right,0.72449803,0.19972147480624483,3,0,0
3965,nb1TestingBlock,14,3,right,1,0.885953,right,0.72449803,0.19972147480624483,3,0,0
3965,nb1TestingBlock,11,3,right,1,0.6381235,right,0.72449803,0.19972147480624483,3,0,0
3965,nb1TestingBlock,13,2,right,0,0.5784251,left,0.72449803,0.19972147480624483,3,0,0
3965,nb1TestingBlock,13,0,left,1,0.7906247,left,0.72449803,0.19972147480624483,3,0,0
3965,nb1TestingBlock,14,1,right,1,0.7722599,right,0.72449803,0.19972147480624483,3,0,0
3965,nb1TestingBlock,2,3,right,1,0.9113609,right,0.72449803,0.19972147480624483,3,0,0
3965,nb1TestingBlock,2,0,left,1,0.6855104,left,0.72449803,0.19972147480624483,3,0,0
3965,nb2TestingBlock,3,0,left,1,0.6497242,left,1.0194715733333333,0.4051902722787869,9,0,0
3965,nb2TestingBlock,9,3,right,1,3.6160888,right,1.0194715733333333,0.4051902722787869,9,1,0
3965,nb2TestingBlock,2,1,right,1,1.6251772,right,1.0194715733333333,0.4051902722787869,9,0,0
3965,nb2TestingBlock,9,0,left,1,0.9201397,left,1.0194715733333333,0.4051902722787869,9,0,0
3965,nb2TestingBlock,4,2,right,0,1.6728763,left,1.0194715733333333,0.4051902722787869,9,0,0
3965,nb2TestingBlock,10,1,right,1,1.8651921,right,1.0194715733333333,0.4051902722787869,9,0,0
3965,nb2TestingBlock,6,2,right,1,1.6890154,right,1.0194715733333333,0.4051902722787869,9,0,0
3965,nb2TestingBlock,6,4,right,0,1.1296914,left,1.0194715733333333,0.4051902722787869,9,0,0
3965,nb2TestingBlock,7,1,right,1,0.7456244,right,1.0194715733333333,0.4051902722787869,9,0,0
3965,nb2TestingBlock,6,0,left,1,0.8696181,left,1.0194715733333333,0.4051902722787869,9,0,0
3965,nb2TestingBlock,5,2,right,1,1.0200456,right,1.0194715733333333,0.4051902722787869,9,0,0
3965,nb2TestingBlock,10,4,right,0,0.8568997,left,1.0194715733333333,0.4051902722787869,9,0,0
3965,nb2TestingBlock,2,3,right,1,0.8514414,right,1.0194715733333333,0.4051902722787869,9,0,0
3965,nb2TestingBlock,13,3,right,1,1.1867733,right,1.0194715733333333,0.4051902722787869,9,0,0
3965,nb2TestingBlock,3,1,right,0,0.7612812,left,1.0194715733333333,0.4051902722787869,9,0,0
3965,nb2TestingBlock,1,3,right,1,1.002775,right,1.0194715733333333,0.4051902722787869,9,0,0
3965,nb2TestingBlock,3,0,left,1,0.8089833,left,1.0194715733333333,0.4051902722787869,9,0,0
3965,nb2TestingBlock,1,0,left,1,1.3773146,left,1.0194715733333333,0.4051902722787869,9,0,0
3965,nb2TestingBlock,4,1,right,1,1.0028348,right,1.0194715733333333,0.4051902722787869,9,0,0
3965,nb2TestingBlock,1,0,left,1,0.8474565,left,1.0194715733333333,0.4051902722787869,9,0,0
3965,nb2TestingBlock,4,0,left,1,0.8880109,left,1.0194715733333333,0.4051902722787869,9,0,0
3965,nb2TestingBlock,5,4,right,1,1.0573861,right,1.0194715733333333,0.4051902722787869,9,0,0
3965,nb2TestingBlock,0,4,right,0,0.9697117,left,1.0194715733333333,0.4051902722787869,9,0,0
3965,nb2TestingBlock,5,0,left,1,0.9134886,left,1.0194715733333333,0.4051902722787869,9,0,0
3965,nb2TestingBlock,3,3,right,1,0.9578824,right,1.0194715733333333,0.4051902722787869,9,0,0
3965,nb2TestingBlock,1,4,right,0,1.3988896,left,1.0194715733333333,0.4051902722787869,9,0,0
3965,nb2TestingBlock,1,2,right,0,0.9687378,left,1.0194715733333333,0.4051902722787869,9,0,0
3965,nb2TestingBlock,12,4,right,1,1.3128169,right,1.0194715733333333,0.4051902722787869,9,0,0
3965,nb2TestingBlock,14,2,right,1,0.905175,right,1.0194715733333333,0.4051902722787869,9,0,0
3965,nb2TestingBlock,11,1,right,0,0.7082064,left,1.0194715733333333,0.4051902722787869,9,0,0
3965,nb2TestingBlock,14,0,left,0,0.8928732,right,1.0194715733333333,0.4051902722787869,9,0,0
3965,nb2TestingBlock,14,3,right,0,0.9863075,left,1.0194715733333333,0.4051902722787869,9,0,0
3965,nb2TestingBlock,12,2,right,1,0.997234,right,1.0194715733333333,0.4051902722787869,9,0,0
3965,nb2TestingBlock,0,1,right,1,1.0382358,right,1.0194715733333333,0.4051902722787869,9,0,0
3965,nb2TestingBlock,8,4,right,1,0.8563715,right,1.0194715733333333,0.4051902722787869,9,0,0
3965,nb2TestingBlock,0,0,left,1,1.4908598,left,1.0194715733333333,0.4051902722787869,9,0,0
3965,nb2TestingBlock,11,3,right,1,1.2410532,right,1.0194715733333333,0.4051902722787869,9,0,0
3965,nb2TestingBlock,13,2,right,1,1.7526247,right,1.0194715733333333,0.4051902722787869,9,0,0
3965,nb2TestingBlock,11,0,left,1,1.0803502,left,1.0194715733333333,0.4051902722787869,9,0,0
3965,nb2TestingBlock,11,2,right,0,0.696735,left,1.0194715733333333,0.4051902722787869,9,0,0
3965,nb2TestingBlock,11,0,left,1,0.6104031,left,1.0194715733333333,0.4051902722787869,9,0,0
3965,nb2TestingBlock,8,3,right,1,0.6907076,right,1.0194715733333333,0.4051902722787869,9,0,0
3965,nb2TestingBlock,9,2,right,1,0.9136765,right,1.0194715733333333,0.4051902722787869,9,0,0
3965,nb2TestingBlock,9,1,right,0,0.6718593,left,1.0194715733333333,0.4051902722787869,9,0,0
3965,nb2TestingBlock,7,2,right,1,0.6864765,right,1.0194715733333333,0.4051902722787869,9,0,0
3965,nb2TestingBlock,9,0,left,1,0.7929246,left,1.0194715733333333,0.4051902722787869,9,0,0
3965,nb2TestingBlock,7,0,left,0,0.7911692,right,1.0194715733333333,0.4051902722787869,9,0,0
3965,nb2TestingBlock,8,1,right,1,1.6708237,right,1.0194715733333333,0.4051902722787869,9,0,0
3965,nb2TestingBlock,3,4,right,1,0.9199575,right,1.0194715733333333,0.4051902722787869,9,0,0
3965,nb2TestingBlock,8,0,left,1,2.1374807,left,1.0194715733333333,0.4051902722787869,9,0,0
3965,nb2TestingBlock,6,3,right,1,1.3526903,right,1.0194715733333333,0.4051902722787869,9,0,0
3965,nb2TestingBlock,10,2,right,1,0.9520427,right,1.0194715733333333,0.4051902722787869,9,0,0
3965,nb2TestingBlock,6,0,left,1,0.774488,left,1.0194715733333333,0.4051902722787869,9,0,0
3965,nb2TestingBlock,10,0,left,1,0.8665755,left,1.0194715733333333,0.4051902722787869,9,0,0
3965,nb2TestingBlock,5,1,right,1,0.8757811,right,1.0194715733333333,0.4051902722787869,9,0,0
3965,nb2TestingBlock,10,0,left,1,0.7749772,left,1.0194715733333333,0.4051902722787869,9,0,0
3965,nb2TestingBlock,5,0,left,1,0.7233603,left,1.0194715733333333,0.4051902722787869,9,0,0
3965,nb2TestingBlock,7,3,right,1,1.1046063,right,1.0194715733333333,0.4051902722787869,9,0,0
3965,nb2TestingBlock,3,2,right,1,0.9208731,right,1.0194715733333333,0.4051902722787869,9,0,0
3965,nb2TestingBlock,10,3,right,1,0.792781,right,1.0194715733333333,0.4051902722787869,9,0,0
3965,nb2TestingBlock,7,4,right,0,0.8382042,left,1.0194715733333333,0.4051902722787869,9,0,0
3965,nb2TestingBlock,14,4,right,1,1.1987041,right,1.0194715733333333,0.4051902722787869,9,0,0
3965,nb2TestingBlock,6,1,right,1,0.9528169,right,1.0194715733333333,0.4051902722787869,9,0,0
3965,nb2TestingBlock,14,0,left,1,0.8867486,left,1.0194715733333333,0.4051902722787869,9,0,0
3965,nb2TestingBlock,2,4,right,1,0.8651264,right,1.0194715733333333,0.4051902722787869,9,0,0
3965,nb2TestingBlock,13,1,right,1,0.9550403,right,1.0194715733333333,0.4051902722787869,9,0,0
3965,nb2TestingBlock,1,1,right,1,1.1101041,right,1.0194715733333333,0.4051902722787869,9,0,0
3965,nb2TestingBlock,0,2,right,1,1.0176384,right,1.0194715733333333,0.4051902722787869,9,0,0
3965,nb2TestingBlock,4,3,right,0,1.0974534,left,1.0194715733333333,0.4051902722787869,9,0,0
3965,nb2TestingBlock,4,4,right,0,0.792665,left,1.0194715733333333,0.4051902722787869,9,0,0
3965,nb2TestingBlock,8,4,right,1,0.6467488,right,1.0194715733333333,0.4051902722787869,9,0,0
3965,nb2TestingBlock,4,0,left,0,0.9283407,right,1.0194715733333333,0.4051902722787869,9,0,0
3965,nb2TestingBlock,8,0,left,0,1.1289809,right,1.0194715733333333,0.4051902722787869,9,0,0
3965,nb2TestingBlock,2,2,right,1,0.9696562,right,1.0194715733333333,0.4051902722787869,9,0,0
3965,nb2TestingBlock,5,3,right,1,1.0561042,right,1.0194715733333333,0.4051902722787869,9,0,0
3965,nb2TestingBlock,2,0,left,1,0.8238693,left,1.0194715733333333,0.4051902722787869,9,0,0
3965,nb2TestingBlock,2,3,right,0,0.7558664,left,1.0194715733333333,0.4051902722787869,9,0,0
3965,nb2TestingBlock,13,4,right,1,0.8946683,right,1.0194715733333333,0.4051902722787869,9,0,0
3965,nb2TestingBlock,2,0,left,0,0.8263035,right,1.0194715733333333,0.4051902722787869,9,0,0
3965,nb2TestingBlock,13,0,left,1,0.5813424,left,1.0194715733333333,0.4051902722787869,9,0,0
3965,nb2TestingBlock,14,3,right,1,0.8527469,right,1.0194715733333333,0.4051902722787869,9,0,0
3965,nb2TestingBlock,13,0,left,0,1.2190408,right,1.0194715733333333,0.4051902722787869,9,0,0
3965,nb2TestingBlock,12,2,right,1,1.1117488,right,1.0194715733333333,0.4051902722787869,9,0,0
3965,nb2TestingBlock,12,1,right,1,1.0174807,right,1.0194715733333333,0.4051902722787869,9,0,0
3965,nb2TestingBlock,1,4,right,0,0.8404558,left,1.0194715733333333,0.4051902722787869,9,0,0
3965,nb2TestingBlock,12,0,left,0,0.6322557,right,1.0194715733333333,0.4051902722787869,9,0,0
3965,nb2TestingBlock,0,1,right,1,0.6150563,right,1.0194715733333333,0.4051902722787869,9,0,0
3965,nb2TestingBlock,12,0,left,1,0.850701,left,1.0194715733333333,0.4051902722787869,9,0,0
3965,nb2TestingBlock,0,0,left,0,0.8026935,right,1.0194715733333333,0.4051902722787869,9,0,0
3965,nb2TestingBlock,12,0,left,1,0.8483225,left,1.0194715733333333,0.4051902722787869,9,0,0
3966,nb1TestingBlock,11,0,left,1,0.4299128,left,0.47904784,0.11084280416505543,3,0,0
3966,nb1TestingBlock,7,4,right,1,0.4435995,right,0.47904784,0.11084280416505543,3,0,0
3966,nb1TestingBlock,8,1,right,1,0.5339914,right,0.47904784,0.11084280416505543,3,0,0
3966,nb1TestingBlock,12,4,right,1,0.4462425,right,0.47904784,0.11084280416505543,3,0,0
3966,nb1TestingBlock,12,0,left,1,0.3257382,left,0.47904784,0.11084280416505543,3,0,0
3966,nb1TestingBlock,0,3,right,1,0.3976576,right,0.47904784,0.11084280416505543,3,0,0
3966,nb1TestingBlock,0,0,left,1,0.5154883,left,0.47904784,0.11084280416505543,3,0,0
3966,nb1TestingBlock,1,1,right,1,0.4588735,right,0.47904784,0.11084280416505543,3,0,0
3966,nb1TestingBlock,3,2,right,1,0.4305947,right,0.47904784,0.11084280416505543,3,0,0
3966,nb1TestingBlock,2,1,right,1,0.5549648,right,0.47904784,0.11084280416505543,3,0,0
3966,nb1TestingBlock,6,4,right,1,0.6271691,right,0.47904784,0.11084280416505543,3,0,0
3966,nb1TestingBlock,6,0,left,1,0.4714225,left,0.47904784,0.11084280416505543,3,0,0
3966,nb1TestingBlock,6,0,left,1,0.3710015,left,0.47904784,0.11084280416505543,3,0,0
3966,nb1TestingBlock,10,4,right,1,0.3345005,right,0.47904784,0.11084280416505543,3,0,0
3966,nb1TestingBlock,8,2,right,1,0.5504911,right,0.47904784,0.11084280416505543,3,0,0
3966,nb1TestingBlock,8,0,left,1,0.306764,left,0.47904784,0.11084280416505543,3,0,0
3966,nb1TestingBlock,6,2,right,1,0.4420032,right,0.47904784,0.11084280416505543,3,0,0
3966,nb1TestingBlock,9,3,right,1,0.423043,right,0.47904784,0.11084280416505543,3,0,0
3966,nb1TestingBlock,9,0,left,1,0.4029245,left,0.47904784,0.11084280416505543,3,0,0
3966,nb1TestingBlock,5,4,right,1,0.4299461,right,0.47904784,0.11084280416505543,3,0,0
3966,nb1TestingBlock,4,1,right,1,0.5869586,right,0.47904784,0.11084280416505543,3,0,0
3966,nb1TestingBlock,4,0,left,1,0.6406536,left,0.47904784,0.11084280416505543,3,0,0
3966,nb1TestingBlock,2,2,right,1,0.3497823,right,0.47904784,0.11084280416505543,3,0,0
3966,nb1TestingBlock,14,3,right,1,0.5250673,right,0.47904784,0.11084280416505543,3,0,0
3966,nb1TestingBlock,11,3,right,0,0.4705082,left,0.47904784,0.11084280416505543,3,0,0
3966,nb1TestingBlock,13,2,right,1,0.6763405,right,0.47904784,0.11084280416505543,3,0,0
3966,nb1TestingBlock,13,0,left,1,0.6360468,left,0.47904784,0.11084280416505543,3,0,0
3966,nb1TestingBlock,14,1,right,1,0.4187789,right,0.47904784,0.11084280416505543,3,0,0
3966,nb1TestingBlock,2,3,right,1,0.7586419,right,0.47904784,0.11084280416505543,3,0,0
3966,nb1TestingBlock,2,0,left,1,0.4123283,left,0.47904784,0.11084280416505543,3,0,0
3966,nb2TestingBlock,3,0,left,1,0.601963,left,1.0352540555555556,0.43171773274966435,9,0,0
3966,nb2TestingBlock,9,3,right,1,0.9045611,right,1.0352540555555556,0.43171773274966435,9,0,0
3966,nb2TestingBlock,2,1,right,1,0.8689012,right,1.0352540555555556,0.43171773274966435,9,0,0
3966,nb2TestingBlock,9,0,left,1,0.4767553,left,1.0352540555555556,0.43171773274966435,9,0,0
3966,nb2TestingBlock,4,2,right,1,0.6623795,right,1.0352540555555556,0.43171773274966435,9,0,0
3966,nb2TestingBlock,10,1,right,1,1.4610231,right,1.0352540555555556,0.43171773274966435,9,0,0
3966,nb2TestingBlock,6,2,right,1,1.2079435,right,1.0352540555555556,0.43171773274966435,9,0,0
3966,nb2TestingBlock,6,4,right,0,1.433133,left,1.0352540555555556,0.43171773274966435,9,0,0
3966,nb2TestingBlock,7,1,right,1,0.8250179,right,1.0352540555555556,0.43171773274966435,9,0,0
3966,nb2TestingBlock,6,0,left,1,3.8768387,left,1.0352540555555556,0.43171773274966435,9,1,0
3966,nb2TestingBlock,5,2,right,1,1.1127516,right,1.0352540555555556,0.43171773274966435,9,0,0
3966,nb2TestingBlock,10,4,right,1,1.86478,right,1.0352540555555556,0.43171773274966435,9,0,0
3966,nb2TestingBlock,2,3,right,1,1.1130229,right,1.0352540555555556,0.43171773274966435,9,0,0
3966,nb2TestingBlock,13,3,right,1,1.0969087,right,1.0352540555555556,0.43171773274966435,9,0,0
3966,nb2TestingBlock,3,1,right,1,1.0167273,right,1.0352540555555556,0.43171773274966435,9,0,0
3966,nb2TestingBlock,1,3,right,0,1.0960835,left,1.0352540555555556,0.43171773274966435,9,0,0
3966,nb2TestingBlock,3,0,left,0,0.7133319,right,1.0352540555555556,0.43171773274966435,9,0,0
3966,nb2TestingBlock,1,0,left,1,1.3196317,left,1.0352540555555556,0.43171773274966435,9,0,0
3966,nb2TestingBlock,4,1,right,0,1.2090277,left,1.0352540555555556,0.43171773274966435,9,0,0
3966,nb2TestingBlock,1,0,left,1,1.3526549,left,1.0352540555555556,0.43171773274966435,9,0,0
3966,nb2TestingBlock,4,0,left,0,0.7760492,right,1.0352540555555556,0.43171773274966435,9,0,0
3966,nb2TestingBlock,5,4,right,1,1.1223226,right,1.0352540555555556,0.43171773274966435,9,0,0
3966,nb2TestingBlock,0,4,right,1,1.3044865,right,1.0352540555555556,0.43171773274966435,9,0,0
3966,nb2TestingBlock,5,0,left,1,0.7289913,left,1.0352540555555556,0.43171773274966435,9,0,0
3966,nb2TestingBlock,3,3,right,1,0.8808704,right,1.0352540555555556,0.43171773274966435,9,0,0
3966,nb2TestingBlock,1,4,right,1,2.352261,right,1.0352540555555556,0.43171773274966435,9,1,0
3966,nb2TestingBlock,1,2,right,1,1.5295628,right,1.0352540555555556,0.43171773274966435,9,0,0
3966,nb2TestingBlock,12,4,right,1,1.0328059,right,1.0352540555555556,0.43171773274966435,9,0,0
3966,nb2TestingBlock,14,2,right,1,1.3524204,right,1.0352540555555556,0.43171773274966435,9,0,0
3966,nb2TestingBlock,11,1,right,1,1.5923232,right,1.0352540555555556,0.43171773274966435,9,0,0
3966,nb2TestingBlock,14,0,left,0,0.8567139,right,1.0352540555555556,0.43171773274966435,9,0,0
3966,nb2TestingBlock,14,3,right,0,0.7868386,left,1.0352540555555556,0.43171773274966435,9,0,0
3966,nb2TestingBlock,12,2,right,0,1.0365561,left,1.0352540555555556,0.43171773274966435,9,0,0
3966,nb2TestingBlock,0,1,right,0,1.0974824,left,1.0352540555555556,0.43171773274966435,9,0,0
3966,nb2TestingBlock,8,4,right,1,0.6496735,right,1.0352540555555556,0.43171773274966435,9,0,0
3966,nb2TestingBlock,0,0,left,0,0.8642474,right,1.0352540555555556,0.43171773274966435,9,0,0
3966,nb2TestingBlock,11,3,right,0,1.371895,left,1.0352540555555556,0.43171773274966435,9,0,0
3966,nb2TestingBlock,13,2,right,1,1.49657,right,1.0352540555555556,0.43171773274966435,9,0,0
3966,nb2TestingBlock,11,0,left,1,1.4652292,left,1.0352540555555556,0.43171773274966435,9,0,0
3966,nb2TestingBlock,11,2,right,1,1.0646454,right,1.0352540555555556,0.43171773274966435,9,0,0
3966,nb2TestingBlock,11,0,left,1,0.6326695,left,1.0352540555555556,0.43171773274966435,9,0,0
3966,nb2TestingBlock,8,3,right,1,0.7428238,right,1.0352540555555556,0.43171773274966435,9,0,0
3966,nb2TestingBlock,9,2,right,1,1.0297018,right,1.0352540555555556,0.43171773274966435,9,0,0
3966,nb2TestingBlock,9,1,right,0,1.0656343,left,1.0352540555555556,0.43171773274966435,9,0,0
3966,nb2TestingBlock,7,2,right,1,0.8414002,right,1.0352540555555556,0.43171773274966435,9,0,0
3966,nb2TestingBlock,9,0,left,1,1.0479817,left,1.0352540555555556,0.43171773274966435,9,0,0
3966,nb2TestingBlock,7,0,left,1,1.0329012,left,1.0352540555555556,0.43171773274966435,9,0,0
3966,nb2TestingBlock,8,1,right,1,1.0648909,right,1.0352540555555556,0.43171773274966435,9,0,0
3966,nb2TestingBlock,3,4,right,1,0.8083614,right,1.0352540555555556,0.43171773274966435,9,0,0
3966,nb2TestingBlock,8,0,left,1,0.9131149,left,1.0352540555555556,0.43171773274966435,9,0,0
3966,nb2TestingBlock,6,3,right,1,0.8462407,right,1.0352540555555556,0.43171773274966435,9,0,0
3966,nb2TestingBlock,10,2,right,1,1.0972039,right,1.0352540555555556,0.43171773274966435,9,0,0
3966,nb2TestingBlock,6,0,left,1,0.6324405,left,1.0352540555555556,0.43171773274966435,9,0,0
3966,nb2TestingBlock,10,0,left,1,0.8219505,left,1.0352540555555556,0.43171773274966435,9,0,0
3966,nb2TestingBlock,5,1,right,1,0.8532986,right,1.0352540555555556,0.43171773274966435,9,0,0
3966,nb2TestingBlock,10,0,left,1,0.6908345,left,1.0352540555555556,0.43171773274966435,9,0,0
3966,nb2TestingBlock,5,0,left,1,0.9943051,left,1.0352540555555556,0.43171773274966435,9,0,0
3966,nb2TestingBlock,7,3,right,1,0.7025829,right,1.0352540555555556,0.43171773274966435,9,0,0
3966,nb2TestingBlock,3,2,right,1,0.9408574,right,1.0352540555555556,0.43171773274966435,9,0,0
3966,nb2TestingBlock,10,3,right,0,0.7481869,left,1.0352540555555556,0.43171773274966435,9,0,0
3966,nb2TestingBlock,7,4,right,0,1.2530649,left,1.0352540555555556,0.43171773274966435,9,0,0
3966,nb2TestingBlock,14,4,right,1,0.5846378,right,1.0352540555555556,0.43171773274966435,9,0,0
3966,nb2TestingBlock,6,1,right,0,1.2689367,left,1.0352540555555556,0.43171773274966435,9,0,0
3966,nb2TestingBlock,14,0,left,1,0.7448847,left,1.0352540555555556,0.43171773274966435,9,0,0
3966,nb2TestingBlock,2,4,right,1,0.916596,right,1.0352540555555556,0.43171773274966435,9,0,0
3966,nb2TestingBlock,13,1,right,1,1.0708674,right,1.0352540555555556,0.43171773274966435,9,0,0
3966,nb2TestingBlock,1,1,right,1,1.3368615,right,1.0352540555555556,0.43171773274966435,9,0,0
3966,nb2TestingBlock,0,2,right,1,0.872601,right,1.0352540555555556,0.43171773274966435,9,0,0
3966,nb2TestingBlock,4,3,right,1,0.9187898,right,1.0352540555555556,0.43171773274966435,9,0,0
3966,nb2TestingBlock,4,4,right,1,1.3738371,right,1.0352540555555556,0.43171773274966435,9,0,0
3966,nb2TestingBlock,8,4,right,1,0.9527583,right,1.0352540555555556,0.43171773274966435,9,0,0
3966,nb2TestingBlock,4,0,left,1,0.6796031,left,1.0352540555555556,0.43171773274966435,9,0,0
3966,nb2TestingBlock,8,0,left,1,0.9593226,left,1.0352540555555556,0.43171773274966435,9,0,0
3966,nb2TestingBlock,2,2,right,1,0.8867896,right,1.0352540555555556,0.43171773274966435,9,0,0
3966,nb2TestingBlock,5,3,right,0,0.9445533,left,1.0352540555555556,0.43171773274966435,9,0,0
3966,nb2TestingBlock,2,0,left,1,0.7974689,left,1.0352540555555556,0.43171773274966435,9,0,0
3966,nb2TestingBlock,2,3,right,0,0.6937043,left,1.0352540555555556,0.43171773274966435,9,0,0
3966,nb2TestingBlock,13,4,right,1,0.978784,right,1.0352540555555556,0.43171773274966435,9,0,0
3966,nb2TestingBlock,2,0,left,1,0.9060363,left,1.0352540555555556,0.43171773274966435,9,0,0
3966,nb2TestingBlock,13,0,left,1,0.7088432,left,1.0352540555555556,0.43171773274966435,9,0,0
3966,nb2TestingBlock,14,3,right,1,0.9249741,right,1.0352540555555556,0.43171773274966435,9,0,0
3966,nb2TestingBlock,13,0,left,1,0.5848717,left,1.0352540555555556,0.43171773274966435,9,0,0
3966,nb2TestingBlock,12,2,right,1,0.8855299,right,1.0352540555555556,0.43171773274966435,9,0,0
3966,nb2TestingBlock,12,1,right,1,1.4726826,right,1.0352540555555556,0.43171773274966435,9,0,0
3966,nb2TestingBlock,1,4,right,1,1.3047726,right,1.0352540555555556,0.43171773274966435,9,0,0
3966,nb2TestingBlock,12,0,left,1,0.5846427,left,1.0352540555555556,0.43171773274966435,9,0,0
3966,nb2TestingBlock,0,1,right,1,0.7086958,right,1.0352540555555556,0.43171773274966435,9,0,0
3966,nb2TestingBlock,12,0,left,1,1.0358973,left,1.0352540555555556,0.43171773274966435,9,0,0
3966,nb2TestingBlock,0,0,left,1,0.9371899,left,1.0352540555555556,0.43171773274966435,9,0,0
3966,nb2TestingBlock,12,0,left,0,0.8019059,right,1.0352540555555556,0.43171773274966435,9,0,0
3968,nb1TestingBlock,11,0,left,1,0.445426,left,0.5424777433333333,0.17458103492464996,3,0,0
3968,nb1TestingBlock,7,4,right,1,0.5982329,right,0.5424777433333333,0.17458103492464996,3,0,0
3968,nb1TestingBlock,8,1,right,1,0.8918208,right,0.5424777433333333,0.17458103492464996,3,0,0
3968,nb1TestingBlock,12,4,right,1,0.5504595,right,0.5424777433333333,0.17458103492464996,3,0,0
3968,nb1TestingBlock,12,0,left,1,0.5796485,left,0.5424777433333333,0.17458103492464996,3,0,0
3968,nb1TestingBlock,0,3,right,1,0.5362474,right,0.5424777433333333,0.17458103492464996,3,0,0
3968,nb1TestingBlock,0,0,left,1,0.4794852,left,0.5424777433333333,0.17458103492464996,3,0,0
3968,nb1TestingBlock,1,1,right,1,0.4353643,right,0.5424777433333333,0.17458103492464996,3,0,0
3968,nb1TestingBlock,3,2,right,1,0.5397369,right,0.5424777433333333,0.17458103492464996,3,0,0
3968,nb1TestingBlock,2,1,right,1,0.7349181,right,0.5424777433333333,0.17458103492464996,3,0,0
3968,nb1TestingBlock,6,4,right,0,0.3768886,left,0.5424777433333333,0.17458103492464996,3,0,0
3968,nb1TestingBlock,6,0,left,1,0.7672576,left,0.5424777433333333,0.17458103492464996,3,0,0
3968,nb1TestingBlock,6,0,left,1,0.4854601,left,0.5424777433333333,0.17458103492464996,3,0,0
3968,nb1TestingBlock,10,4,right,1,0.4458936,right,0.5424777433333333,0.17458103492464996,3,0,0
3968,nb1TestingBlock,8,2,right,1,0.5492641,right,0.5424777433333333,0.17458103492464996,3,0,0
3968,nb1TestingBlock,8,0,left,1,0.4423252,left,0.5424777433333333,0.17458103492464996,3,0,0
3968,nb1TestingBlock,6,2,right,1,0.5186416,right,0.5424777433333333,0.17458103492464996,3,0,0
3968,nb1TestingBlock,9,3,right,0,0.362935,left,0.5424777433333333,0.17458103492464996,3,0,0
3968,nb1TestingBlock,9,0,left,1,0.4697165,left,0.5424777433333333,0.17458103492464996,3,0,0
3968,nb1TestingBlock,5,4,right,1,0.5852723,right,0.5424777433333333,0.17458103492464996,3,0,0
3968,nb1TestingBlock,4,1,right,0,1.2176966,left,0.5424777433333333,0.17458103492464996,3,1,0
3968,nb1TestingBlock,4,0,left,1,0.5824753,left,0.5424777433333333,0.17458103492464996,3,0,0
3968,nb1TestingBlock,2,2,right,1,0.304367,right,0.5424777433333333,0.17458103492464996,3,0,0
3968,nb1TestingBlock,14,3,right,1,0.5223518,right,0.5424777433333333,0.17458103492464996,3,0,0
3968,nb1TestingBlock,11,3,right,1,0.4846974,right,0.5424777433333333,0.17458103492464996,3,0,0
3968,nb1TestingBlock,13,2,right,1,0.491884,right,0.5424777433333333,0.17458103492464996,3,0,0
3968,nb1TestingBlock,13,0,left,1,0.4393121,left,0.5424777433333333,0.17458103492464996,3,0,0
3968,nb1TestingBlock,14,1,right,0,0.5546849,left,0.5424777433333333,0.17458103492464996,3,0,0
3968,nb1TestingBlock,2,3,right,1,0.4030055,right,0.5424777433333333,0.17458103492464996,3,0,0
3968,nb1TestingBlock,2,0,left,1,0.4788635,left,0.5424777433333333,0.17458103492464996,3,0,0
3968,nb2TestingBlock,3,0,left,1,0.4418105,left,0.9619007666666667,0.5898968886803465,9,0,0
3968,nb2TestingBlock,9,3,right,1,0.6003512,right,0.9619007666666667,0.5898968886803465,9,0,0
3968,nb2TestingBlock,2,1,right,1,0.7760064,right,0.9619007666666667,0.5898968886803465,9,0,0
3968,nb2TestingBlock,9,0,left,1,0.5791784,left,0.9619007666666667,0.5898968886803465,9,0,0
3968,nb2TestingBlock,4,2,right,1,0.8909206,right,0.9619007666666667,0.5898968886803465,9,0,0
3968,nb2TestingBlock,10,1,right,1,0.8586331,right,0.9619007666666667,0.5898968886803465,9,0,0
3968,nb2TestingBlock,6,2,right,1,0.7233369,right,0.9619007666666667,0.5898968886803465,9,0,0
3968,nb2TestingBlock,6,4,right,1,0.5608917,right,0.9619007666666667,0.5898968886803465,9,0,0
3968,nb2TestingBlock,7,1,right,1,0.6250842,right,0.9619007666666667,0.5898968886803465,9,0,0
3968,nb2TestingBlock,6,0,left,0,0.8932057,right,0.9619007666666667,0.5898968886803465,9,0,0
3968,nb2TestingBlock,5,2,right,1,0.8907377,right,0.9619007666666667,0.5898968886803465,9,0,0
3968,nb2TestingBlock,10,4,right,1,0.985951,right,0.9619007666666667,0.5898968886803465,9,0,0
3968,nb2TestingBlock,2,3,right,1,0.9971612,right,0.9619007666666667,0.5898968886803465,9,0,0
3968,nb2TestingBlock,13,3,right,1,0.9746598,right,0.9619007666666667,0.5898968886803465,9,0,0
3968,nb2TestingBlock,3,1,right,1,0.7951113,right,0.9619007666666667,0.5898968886803465,9,0,0
3968,nb2TestingBlock,1,3,right,1,0.6458571,right,0.9619007666666667,0.5898968886803465,9,0,0
3968,nb2TestingBlock,3,0,left,0,1.0880866,right,0.9619007666666667,0.5898968886803465,9,0,0
3968,nb2TestingBlock,1,0,left,1,0.7762096,left,0.9619007666666667,0.5898968886803465,9,0,0
3968,nb2TestingBlock,4,1,right,1,0.8024397,right,0.9619007666666667,0.5898968886803465,9,0,0
3968,nb2TestingBlock,1,0,left,0,4.8007571,right,0.9619007666666667,0.5898968886803465,9,1,0
3968,nb2TestingBlock,4,0,left,1,1.0324695,left,0.9619007666666667,0.5898968886803465,9,0,0
3968,nb2TestingBlock,5,4,right,1,0.7769018,right,0.9619007666666667,0.5898968886803465,9,0,0
3968,nb2TestingBlock,0,4,right,1,1.0589882,right,0.9619007666666667,0.5898968886803465,9,0,0
3968,nb2TestingBlock,5,0,left,0,1.1605058,right,0.9619007666666667,0.5898968886803465,9,0,0
3968,nb2TestingBlock,3,3,right,1,4.057012,right,0.9619007666666667,0.5898968886803465,9,1,0
3968,nb2TestingBlock,1,4,right,0,1.0969831,left,0.9619007666666667,0.5898968886803465,9,0,0
3968,nb2TestingBlock,1,2,right,1,0.8250408,right,0.9619007666666667,0.5898968886803465,9,0,0
3968,nb2TestingBlock,12,4,right,1,0.9967293,right,0.9619007666666667,0.5898968886803465,9,0,0
3968,nb2TestingBlock,14,2,right,1,1.5030797,right,0.9619007666666667,0.5898968886803465,9,0,0
3968,nb2TestingBlock,11,1,right,0,0.7449757,left,0.9619007666666667,0.5898968886803465,9,0,0
3968,nb2TestingBlock,14,0,left,1,0.8372381,left,0.9619007666666667,0.5898968886803465,9,0,0
3968,nb2TestingBlock,14,3,right,1,0.7831006,right,0.9619007666666667,0.5898968886803465,9,0,0
3968,nb2TestingBlock,12,2,right,1,0.8287419,right,0.9619007666666667,0.5898968886803465,9,0,0
3968,nb2TestingBlock,0,1,right,1,0.9318704,right,0.9619007666666667,0.5898968886803465,9,0,0
3968,nb2TestingBlock,8,4,right,1,0.8346837,right,0.9619007666666667,0.5898968886803465,9,0,0
3968,nb2TestingBlock,0,0,left,1,1.7757792,left,0.9619007666666667,0.5898968886803465,9,0,0
3968,nb2TestingBlock,11,3,right,0,0.8891633,left,0.9619007666666667,0.5898968886803465,9,0,0
3968,nb2TestingBlock,13,2,right,1,0.736865,right,0.9619007666666667,0.5898968886803465,9,0,0
3968,nb2TestingBlock,11,0,left,1,1.1950522,left,0.9619007666666667,0.5898968886803465,9,0,0
3968,nb2TestingBlock,11,2,right,1,0.8251341,right,0.9619007666666667,0.5898968886803465,9,0,0
3968,nb2TestingBlock,11,0,left,0,0.7408076,right,0.9619007666666667,0.5898968886803465,9,0,0
3968,nb2TestingBlock,8,3,right,1,1.2530621,right,0.9619007666666667,0.5898968886803465,9,0,0
3968,nb2TestingBlock,9,2,right,1,0.777203,right,0.9619007666666667,0.5898968886803465,9,0,0
3968,nb2TestingBlock,9,1,right,1,0.8513649,right,0.9619007666666667,0.5898968886803465,9,0,0
3968,nb2TestingBlock,7,2,right,1,1.235067,right,0.9619007666666667,0.5898968886803465,9,0,0
3968,nb2TestingBlock,9,0,left,1,0.9531759,left,0.9619007666666667,0.5898968886803465,9,0,0
3968,nb2TestingBlock,7,0,left,1,1.0145802,left,0.9619007666666667,0.5898968886803465,9,0,0
3968,nb2TestingBlock,8,1,right,1,0.681093,right,0.9619007666666667,0.5898968886803465,9,0,0
3968,nb2TestingBlock,3,4,right,1,0.9372048,right,0.9619007666666667,0.5898968886803465,9,0,0
3968,nb2TestingBlock,8,0,left,0,0.9951572,right,0.9619007666666667,0.5898968886803465,9,0,0
3968,nb2TestingBlock,6,3,right,1,0.9271154,right,0.9619007666666667,0.5898968886803465,9,0,0
3968,nb2TestingBlock,10,2,right,1,0.7284441,right,0.9619007666666667,0.5898968886803465,9,0,0
3968,nb2TestingBlock,6,0,left,1,0.4328398,left,0.9619007666666667,0.5898968886803465,9,0,0
3968,nb2TestingBlock,10,0,left,1,0.8623591,left,0.9619007666666667,0.5898968886803465,9,0,0
3968,nb2TestingBlock,5,1,right,1,1.068257,right,0.9619007666666667,0.5898968886803465,9,0,0
3968,nb2TestingBlock,10,0,left,0,1.8962747,right,0.9619007666666667,0.5898968886803465,9,0,0
3968,nb2TestingBlock,5,0,left,1,0.6173788,left,0.9619007666666667,0.5898968886803465,9,0,0
3968,nb2TestingBlock,7,3,right,1,1.0747867,right,0.9619007666666667,0.5898968886803465,9,0,0
3968,nb2TestingBlock,3,2,right,1,0.7769562,right,0.9619007666666667,0.5898968886803465,9,0,0
3968,nb2TestingBlock,10,3,right,1,0.6107358,right,0.9619007666666667,0.5898968886803465,9,0,0
3968,nb2TestingBlock,7,4,right,1,0.5305747,right,0.9619007666666667,0.5898968886803465,9,0,0
3968,nb2TestingBlock,14,4,right,1,1.042133,right,0.9619007666666667,0.5898968886803465,9,0,0
3968,nb2TestingBlock,6,1,right,1,1.545219,right,0.9619007666666667,0.5898968886803465,9,0,0
3968,nb2TestingBlock,14,0,left,1,1.3683964,left,0.9619007666666667,0.5898968886803465,9,0,0
3968,nb2TestingBlock,2,4,right,1,0.6482557,right,0.9619007666666667,0.5898968886803465,9,0,0
3968,nb2TestingBlock,13,1,right,1,0.6728547,right,0.9619007666666667,0.5898968886803465,9,0,0
3968,nb2TestingBlock,1,1,right,0,0.5916287,left,0.9619007666666667,0.5898968886803465,9,0,0
3968,nb2TestingBlock,0,2,right,1,0.6872248,right,0.9619007666666667,0.5898968886803465,9,0,0
3968,nb2TestingBlock,4,3,right,1,1.0327838,right,0.9619007666666667,0.5898968886803465,9,0,0
3968,nb2TestingBlock,4,4,right,1,0.8411643,right,0.9619007666666667,0.5898968886803465,9,0,0
3968,nb2TestingBlock,8,4,right,1,0.7437016,right,0.9619007666666667,0.5898968886803465,9,0,0
3968,nb2TestingBlock,4,0,left,0,0.8205877,right,0.9619007666666667,0.5898968886803465,9,0,0
3968,nb2TestingBlock,8,0,left,1,0.6290859,left,0.9619007666666667,0.5898968886803465,9,0,0
3968,nb2TestingBlock,2,2,right,1,0.65340259999999994,right,0.9619007666666667,0.5898968886803465,9,0,0
3968,nb2TestingBlock,5,3,right,1,1.0348512,right,0.9619007666666667,0.5898968886803465,9,0,0
3968,nb2TestingBlock,2,0,left,1,0.7926429,left,0.9619007666666667,0.5898968886803465,9,0,0
3968,nb2TestingBlock,2,3,right,1,0.8389107,right,0.9619007666666667,0.5898968886803465,9,0,0
3968,nb2TestingBlock,13,4,right,1,0.9436229,right,0.9619007666666667,0.5898968886803465,9,0,0
3968,nb2TestingBlock,2,0,left,0,1.1161579,right,0.9619007666666667,0.5898968886803465,9,0,0
3968,nb2TestingBlock,13,0,left,1,0.8410291,left,0.9619007666666667,0.5898968886803465,9,0,0
3968,nb2TestingBlock,14,3,right,1,0.6010514,right,0.9619007666666667,0.5898968886803465,9,0,0
3968,nb2TestingBlock,13,0,left,1,1.1124614,left,0.9619007666666667,0.5898968886803465,9,0,0
3968,nb2TestingBlock,12,2,right,1,0.7919583,right,0.9619007666666667,0.5898968886803465,9,0,0
3968,nb2TestingBlock,12,1,right,1,0.9672758,right,0.9619007666666667,0.5898968886803465,9,0,0
3968,nb2TestingBlock,1,4,right,1,1.0409619,right,0.9619007666666667,0.5898968886803465,9,0,0
3968,nb2TestingBlock,12,0,left,1,0.3131052,left,0.9619007666666667,0.5898968886803465,9,0,0
3968,nb2TestingBlock,0,1,right,1,0.4870431,right,0.9619007666666667,0.5898968886803465,9,0,0
3968,nb2TestingBlock,12,0,left,1,0.9293987,left,0.9619007666666667,0.5898968886803465,9,0,0
3968,nb2TestingBlock,0,0,left,0,0.920276,right,0.9619007666666667,0.5898968886803465,9,0,0
3968,nb2TestingBlock,12,0,left,1,1.0027421,left,0.9619007666666667,0.5898968886803465,9,0,0
3971,nb1TestingBlock,11,0,left,1,0.5890913,left,0.6010860066666667,0.11029830520346717,3,0,0
3971,nb1TestingBlock,7,4,right,1,0.5461323,right,0.6010860066666667,0.11029830520346717,3,0,0
3971,nb1TestingBlock,8,1,right,0,0.6027412,left,0.6010860066666667,0.11029830520346717,3,0,0
3971,nb1TestingBlock,12,4,right,1,0.7094655,right,0.6010860066666667,0.11029830520346717,3,0,0
3971,nb1TestingBlock,12,0,left,1,0.5222288,left,0.6010860066666667,0.11029830520346717,3,0,0
3971,nb1TestingBlock,0,3,right,1,0.5975495,right,0.6010860066666667,0.11029830520346717,3,0,0
3971,nb1TestingBlock,0,0,left,1,0.5237662,left,0.6010860066666667,0.11029830520346717,3,0,0
3971,nb1TestingBlock,1,1,right,1,0.581493,right,0.6010860066666667,0.11029830520346717,3,0,0
3971,nb1TestingBlock,3,2,right,1,0.9457858,right,0.6010860066666667,0.11029830520346717,3,1,0
3971,nb1TestingBlock,2,1,right,1,0.8091226,right,0.6010860066666667,0.11029830520346717,3,0,0
3971,nb1TestingBlock,6,4,right,1,0.6543034,right,0.6010860066666667,0.11029830520346717,3,0,0
3971,nb1TestingBlock,6,0,left,1,0.5362509,left,0.6010860066666667,0.11029830520346717,3,0,0
3971,nb1TestingBlock,6,0,left,1,0.4483906,left,0.6010860066666667,0.11029830520346717,3,0,0
3971,nb1TestingBlock,10,4,right,1,0.5191673,right,0.6010860066666667,0.11029830520346717,3,0,0
3971,nb1TestingBlock,8,2,right,1,0.6995154,right,0.6010860066666667,0.11029830520346717,3,0,0
3971,nb1TestingBlock,8,0,left,1,0.6540187,left,0.6010860066666667,0.11029830520346717,3,0,0
3971,nb1TestingBlock,6,2,right,1,0.632612,right,0.6010860066666667,0.11029830520346717,3,0,0
3971,nb1TestingBlock,9,3,right,1,0.579194,right,0.6010860066666667,0.11029830520346717,3,0,0
3971,nb1TestingBlock,9,0,left,1,0.5192658,left,0.6010860066666667,0.11029830520346717,3,0,0
3971,nb1TestingBlock,5,4,right,1,0.4587146,right,0.6010860066666667,0.11029830520346717,3,0,0
3971,nb1TestingBlock,4,1,right,1,0.7201528,right,0.6010860066666667,0.11029830520346717,3,0,0
3971,nb1TestingBlock,4,0,left,1,0.5438789,left,0.6010860066666667,0.11029830520346717,3,0,0
3971,nb1TestingBlock,2,2,right,1,0.4900368,right,0.6010860066666667,0.11029830520346717,3,0,0
3971,nb1TestingBlock,14,3,right,1,0.5818543,right,0.6010860066666667,0.11029830520346717,3,0,0
3971,nb1TestingBlock,11,3,right,1,0.7699777,right,0.6010860066666667,0.11029830520346717,3,0,0
3971,nb1TestingBlock,13,2,right,1,0.5447162,right,0.6010860066666667,0.11029830520346717,3,0,0
3971,nb1TestingBlock,13,0,left,1,0.5543219,left,0.6010860066666667,0.11029830520346717,3,0,0
3971,nb1TestingBlock,14,1,right,1,0.4837676,right,0.6010860066666667,0.11029830520346717,3,0,0
3971,nb1TestingBlock,2,3,right,1,0.6680556,right,0.6010860066666667,0.11029830520346717,3,0,0
3971,nb1TestingBlock,2,0,left,1,0.5470095,left,0.6010860066666667,0.11029830520346717,3,0,0
3971,nb2TestingBlock,3,0,left,1,0.9689936,left,0.60038891,0.14914891175061903,9,0,0
3971,nb2TestingBlock,9,3,right,1,0.7047401,right,0.60038891,0.14914891175061903,9,0,0
3971,nb2TestingBlock,2,1,right,1,0.6845438,right,0.60038891,0.14914891175061903,9,0,0
3971,nb2TestingBlock,9,0,left,1,0.3608452,left,0.60038891,0.14914891175061903,9,0,0
3971,nb2TestingBlock,4,2,right,1,0.6970162,right,0.60038891,0.14914891175061903,9,0,0
3971,nb2TestingBlock,10,1,right,1,0.7071223,right,0.60038891,0.14914891175061903,9,0,0
3971,nb2TestingBlock,6,2,right,1,0.7005067,right,0.60038891,0.14914891175061903,9,0,0
3971,nb2TestingBlock,6,4,right,1,0.6525791,right,0.60038891,0.14914891175061903,9,0,0
3971,nb2TestingBlock,7,1,right,1,1.1787216,right,0.60038891,0.14914891175061903,9,1,0
3971,nb2TestingBlock,6,0,left,1,0.5855106,left,0.60038891,0.14914891175061903,9,0,0
3971,nb2TestingBlock,5,2,right,1,0.5806417,right,0.60038891,0.14914891175061903,9,0,0
3971,nb2TestingBlock,10,4,right,1,0.4848096,right,0.60038891,0.14914891175061903,9,0,0
3971,nb2TestingBlock,2,3,right,1,0.5289555,right,0.60038891,0.14914891175061903,9,0,0
3971,nb2TestingBlock,13,3,right,1,0.5203512,right,0.60038891,0.14914891175061903,9,0,0
3971,nb2TestingBlock,3,1,right,1,0.4882384,right,0.60038891,0.14914891175061903,9,0,0
3971,nb2TestingBlock,1,3,right,0,0.4647273,left,0.60038891,0.14914891175061903,9,0,0
3971,nb2TestingBlock,3,0,left,0,0.5083744,right,0.60038891,0.14914891175061903,9,0,0
3971,nb2TestingBlock,1,0,left,0,0.6446744,right,0.60038891,0.14914891175061903,9,0,0
3971,nb2TestingBlock,4,1,right,1,0.6878687,right,0.60038891,0.14914891175061903,9,0,0
3971,nb2TestingBlock,1,0,left,0,0.6806893,right,0.60038891,0.14914891175061903,9,0,0
3971,nb2TestingBlock,4,0,left,1,0.8407932,left,0.60038891,0.14914891175061903,9,0,0
3971,nb2TestingBlock,5,4,right,1,0.7297586,right,0.60038891,0.14914891175061903,9,0,0
3971,nb2TestingBlock,0,4,right,1,0.6570509,right,0.60038891,0.14914891175061903,9,0,0
3971,nb2TestingBlock,5,0,left,1,0.4109089,left,0.60038891,0.14914891175061903,9,0,0
3971,nb2TestingBlock,3,3,right,1,0.6830924,right,0.60038891,0.14914891175061903,9,0,0
3971,nb2TestingBlock,1,4,right,1,0.6812689,right,0.60038891,0.14914891175061903,9,0,0
3971,nb2TestingBlock,1,2,right,1,0.6010289,right,0.60038891,0.14914891175061903,9,0,0
3971,nb2TestingBlock,12,4,right,1,0.6004349,right,0.60038891,0.14914891175061903,9,0,0
3971,nb2TestingBlock,14,2,right,1,0.6493622,right,0.60038891,0.14914891175061903,9,0,0
3971,nb2TestingBlock,11,1,right,1,0.7200796,right,0.60038891,0.14914891175061903,9,0,0
3971,nb2TestingBlock,14,0,left,1,0.62532,left,0.60038891,0.14914891175061903,9,0,0
3971,nb2TestingBlock,14,3,right,1,0.6528055,right,0.60038891,0.14914891175061903,9,0,0
3971,nb2TestingBlock,12,2,right,1,0.7307619,right,0.60038891,0.14914891175061903,9,0,0
3971,nb2TestingBlock,0,1,right,1,0.6353342,right,0.60038891,0.14914891175061903,9,0,0
3971,nb2TestingBlock,8,4,right,1,0.8234224,right,0.60038891,0.14914891175061903,9,0,0
3971,nb2TestingBlock,0,0,left,1,0.8373621,left,0.60038891,0.14914891175061903,9,0,0
3971,nb2TestingBlock,11,3,right,1,0.6065006,right,0.60038891,0.14914891175061903,9,0,0
3971,nb2TestingBlock,13,2,right,1,0.5854945,right,0.60038891,0.14914891175061903,9,0,0
3971,nb2TestingBlock,11,0,left,1,0.4215892,left,0.60038891,0.14914891175061903,9,0,0
3971,nb2TestingBlock,11,2,right,1,0.6925394,right,0.60038891,0.14914891175061903,9,0,0
3971,nb2TestingBlock,11,0,left,0,0.963462,right,0.60038891,0.14914891175061903,9,0,0
3971,nb2TestingBlock,8,3,right,1,0.593065,right,0.60038891,0.14914891175061903,9,0,0
3971,nb2TestingBlock,9,2,right,1,0.6861781,right,0.60038891,0.14914891175061903,9,0,0
3971,nb2TestingBlock,9,1,right,1,0.6485377,right,0.60038891,0.14914891175061903,9,0,0
3971,nb2TestingBlock,7,2,right,1,0.5293674,right,0.60038891,0.14914891175061903,9,0,0
3971,nb2TestingBlock,9,0,left,1,0.361295,left,0.60038891,0.14914891175061903,9,0,0
3971,nb2TestingBlock,7,0,left,0,0.7926138,right,0.60038891,0.14914891175061903,9,0,0
3971,nb2TestingBlock,8,1,right,1,0.5187224,right,0.60038891,0.14914891175061903,9,0,0
3971,nb2TestingBlock,3,4,right,1,0.4946299,right,0.60038891,0.14914891175061903,9,0,0
3971,nb2TestingBlock,8,0,left,0,0.715284,right,0.60038891,0.14914891175061903,9,0,0
3971,nb2TestingBlock,6,3,right,1,0.5034659,right,0.60038891,0.14914891175061903,9,0,0
3971,nb2TestingBlock,10,2,right,1,0.4684898,right,0.60038891,0.14914891175061903,9,0,0
3971,nb2TestingBlock,6,0,left,1,0.3480599,left,0.60038891,0.14914891175061903,9,0,0
3971,nb2TestingBlock,10,0,left,0,0.4370926,right,0.60038891,0.14914891175061903,9,0,0
3971,nb2TestingBlock,5,1,right,1,0.6709573,right,0.60038891,0.14914891175061903,9,0,0
3971,nb2TestingBlock,10,0,left,0,0.9436794,right,0.60038891,0.14914891175061903,9,0,0
3971,nb2TestingBlock,5,0,left,1,0.6692625,left,0.60038891,0.14914891175061903,9,0,0
3971,nb2TestingBlock,7,3,right,1,0.4692722,right,0.60038891,0.14914891175061903,9,0,0
3971,nb2TestingBlock,3,2,right,1,0.5733215,right,0.60038891,0.14914891175061903,9,0,0
3971,nb2TestingBlock,10,3,right,1,0.4425581,right,0.60038891,0.14914891175061903,9,0,0
3971,nb2TestingBlock,7,4,right,1,0.6003581,right,0.60038891,0.14914891175061903,9,0,0
3971,nb2TestingBlock,14,4,right,1,0.4881974,right,0.60038891,0.14914891175061903,9,0,0
3971,nb2TestingBlock,6,1,right,1,0.7694651,right,0.60038891,0.14914891175061903,9,0,0
3971,nb2TestingBlock,14,0,left,1,0.4086839,left,0.60038891,0.14914891175061903,9,0,0
3971,nb2TestingBlock,2,4,right,1,0.4003437,right,0.60038891,0.14914891175061903,9,0,0
3971,nb2TestingBlock,13,1,right,1,0.5286213,right,0.60038891,0.14914891175061903,9,0,0
3971,nb2TestingBlock,1,1,right,1,0.520726,right,0.60038891,0.14914891175061903,9,0,0
3971,nb2TestingBlock,0,2,right,1,0.5044266,right,0.60038891,0.14914891175061903,9,0,0
3971,nb2TestingBlock,4,3,right,1,0.6457685,right,0.60038891,0.14914891175061903,9,0,0
3971,nb2TestingBlock,4,4,right,1,0.4328712,right,0.60038891,0.14914891175061903,9,0,0
3971,nb2TestingBlock,8,4,right,1,0.5586302,right,0.60038891,0.14914891175061903,9,0,0
3971,nb2TestingBlock,4,0,left,1,0.3752507,left,0.60038891,0.14914891175061903,9,0,0
3971,nb2TestingBlock,8,0,left,0,0.3860435,right,0.60038891,0.14914891175061903,9,0,0
3971,nb2TestingBlock,2,2,right,1,0.4932569,right,0.60038891,0.14914891175061903,9,0,0
3971,nb2TestingBlock,5,3,right,1,0.5226187,right,0.60038891,0.14914891175061903,9,0,0
3971,nb2TestingBlock,2,0,left,1,0.5364769,left,0.60038891,0.14914891175061903,9,0,0
3971,nb2TestingBlock,2,3,right,1,0.6594221,right,0.60038891,0.14914891175061903,9,0,0
3971,nb2TestingBlock,13,4,right,1,0.4594416,right,0.60038891,0.14914891175061903,9,0,0
3971,nb2TestingBlock,2,0,left,0,0.7072163,right,0.60038891,0.14914891175061903,9,0,0
3971,nb2TestingBlock,13,0,left,0,0.5571741,right,0.60038891,0.14914891175061903,9,0,0
3971,nb2TestingBlock,14,3,right,1,0.615266,right,0.60038891,0.14914891175061903,9,0,0
3971,nb2TestingBlock,13,0,left,1,0.4674425,left,0.60038891,0.14914891175061903,9,0,0
3971,nb2TestingBlock,12,2,right,1,0.6528579,right,0.60038891,0.14914891175061903,9,0,0
3971,nb2TestingBlock,12,1,right,1,0.4752049,right,0.60038891,0.14914891175061903,9,0,0
3971,nb2TestingBlock,1,4,right,1,0.6781897,right,0.60038891,0.14914891175061903,9,0,0
3971,nb2TestingBlock,12,0,left,1,0.3346944,left,0.60038891,0.14914891175061903,9,0,0
3971,nb2TestingBlock,0,1,right,1,0.6348186,right,0.60038891,0.14914891175061903,9,0,0
3971,nb2TestingBlock,12,0,left,0,0.5198449,right,0.60038891,0.14914891175061903,9,0,0
3971,nb2TestingBlock,0,0,left,1,0.6486104,left,0.60038891,0.14914891175061903,9,0,0
3971,nb2TestingBlock,12,0,left,1,0.6089473,left,0.60038891,0.14914891175061903,9,0,0
3974,nb1TestingBlock,11,0,left,1,0.7653599,left,0.6670934333333334,0.14356750479118327,3,0,0
3974,nb1TestingBlock,7,4,right,1,0.6783059,right,0.6670934333333334,0.14356750479118327,3,0,0
3974,nb1TestingBlock,8,1,right,1,0.8764615,right,0.6670934333333334,0.14356750479118327,3,0,0
3974,nb1TestingBlock,12,4,right,1,0.7540561,right,0.6670934333333334,0.14356750479118327,3,0,0
3974,nb1TestingBlock,12,0,left,1,0.5710509,left,0.6670934333333334,0.14356750479118327,3,0,0
3974,nb1TestingBlock,0,3,right,1,0.6307538,right,0.6670934333333334,0.14356750479118327,3,0,0
3974,nb1TestingBlock,0,0,left,1,0.7230988,left,0.6670934333333334,0.14356750479118327,3,0,0
3974,nb1TestingBlock,1,1,right,1,0.7822727,right,0.6670934333333334,0.14356750479118327,3,0,0
3974,nb1TestingBlock,3,2,right,1,0.762084,right,0.6670934333333334,0.14356750479118327,3,0,0
3974,nb1TestingBlock,2,1,right,0,1.1102983,left,0.6670934333333334,0.14356750479118327,3,1,0
3974,nb1TestingBlock,6,4,right,1,0.6289854,right,0.6670934333333334,0.14356750479118327,3,0,0
3974,nb1TestingBlock,6,0,left,1,0.5850918,left,0.6670934333333334,0.14356750479118327,3,0,0
3974,nb1TestingBlock,6,0,left,1,0.6744497,left,0.6670934333333334,0.14356750479118327,3,0,0
3974,nb1TestingBlock,10,4,right,1,0.5713651,right,0.6670934333333334,0.14356750479118327,3,0,0
3974,nb1TestingBlock,8,2,right,0,1.0151933,left,0.6670934333333334,0.14356750479118327,3,0,0
3974,nb1TestingBlock,8,0,left,1,0.5807408,left,0.6670934333333334,0.14356750479118327,3,0,0
3974,nb1TestingBlock,6,2,right,1,0.5130266,right,0.6670934333333334,0.14356750479118327,3,0,0
3974,nb1TestingBlock,9,3,right,1,0.6349111,right,0.6670934333333334,0.14356750479118327,3,0,0
3974,nb1TestingBlock,9,0,left,1,0.563584,left,0.6670934333333334,0.14356750479118327,3,0,0
3974,nb1TestingBlock,5,4,right,1,0.4927514,right,0.6670934333333334,0.14356750479118327,3,0,0
3974,nb1TestingBlock,4,1,right,0,0.7108942,left,0.6670934333333334,0.14356750479118327,3,0,0
3974,nb1TestingBlock,4,0,left,1,0.5156601,left,0.6670934333333334,0.14356750479118327,3,0,0
3974,nb1TestingBlock,2,2,right,1,0.5878358,right,0.6670934333333334,0.14356750479118327,3,0,0
3974,nb1TestingBlock,14,3,right,1,0.5615658,right,0.6670934333333334,0.14356750479118327,3,0,0
3974,nb1TestingBlock,11,3,right,1,0.5256176,right,0.6670934333333334,0.14356750479118327,3,0,0
3974,nb1TestingBlock,13,2,right,1,0.7571308,right,0.6670934333333334,0.14356750479118327,3,0,0
3974,nb1TestingBlock,13,0,left,1,0.5882367,left,0.6670934333333334,0.14356750479118327,3,0,0
3974,nb1TestingBlock,14,1,right,1,0.5786092,right,0.6670934333333334,0.14356750479118327,3,0,0
3974,nb1TestingBlock,2,3,right,1,0.582095,right,0.6670934333333334,0.14356750479118327,3,0,0
3974,nb1TestingBlock,2,0,left,1,0.6913167,left,0.6670934333333334,0.14356750479118327,3,0,0
3974,nb2TestingBlock,3,0,left,1,0.6807905,left,0.8903858188888889,0.479310467113488,9,0,0
3974,nb2TestingBlock,9,3,right,1,0.8720382,right,0.8903858188888889,0.479310467113488,9,0,0
3974,nb2TestingBlock,2,1,right,1,1.253838,right,0.8903858188888889,0.479310467113488,9,0,0
3974,nb2TestingBlock,9,0,left,1,0.6974975,left,0.8903858188888889,0.479310467113488,9,0,0
3974,nb2TestingBlock,4,2,right,1,0.8986912,right,0.8903858188888889,0.479310467113488,9,0,0
3974,nb2TestingBlock,10,1,right,0,0.8423377,left,0.8903858188888889,0.479310467113488,9,0,0
3974,nb2TestingBlock,6,2,right,0,0.7286247,left,0.8903858188888889,0.479310467113488,9,0,0
3974,nb2TestingBlock,6,4,right,1,1.2016029,right,0.8903858188888889,0.479310467113488,9,0,0
3974,nb2TestingBlock,7,1,right,1,0.8729394,right,0.8903858188888889,0.479310467113488,9,0,0
3974,nb2TestingBlock,6,0,left,1,0.9825425,left,0.8903858188888889,0.479310467113488,9,0,0
3974,nb2TestingBlock,5,2,right,1,0.8533378,right,0.8903858188888889,0.479310467113488,9,0,0
3974,nb2TestingBlock,10,4,right,0,0.899611,left,0.8903858188888889,0.479310467113488,9,0,0
3974,nb2TestingBlock,2,3,right,1,1.0982069,right,0.8903858188888889,0.479310467113488,9,0,0
3974,nb2TestingBlock,13,3,right,0,0.8252378,left,0.8903858188888889,0.479310467113488,9,0,0
3974,nb2TestingBlock,3,1,right,1,0.8204934,right,0.8903858188888889,0.479310467113488,9,0,0
3974,nb2TestingBlock,1,3,right,1,0.9811768,right,0.8903858188888889,0.479310467113488,9,0,0
3974,nb2TestingBlock,3,0,left,1,0.5965805,left,0.8903858188888889,0.479310467113488,9,0,0
3974,nb2TestingBlock,1,0,left,0,0.7997068,right,0.8903858188888889,0.479310467113488,9,0,0
3974,nb2TestingBlock,4,1,right,0,0.902257,left,0.8903858188888889,0.479310467113488,9,0,0
3974,nb2TestingBlock,1,0,left,0,0.9631866,right,0.8903858188888889,0.479310467113488,9,0,0
3974,nb2TestingBlock,4,0,left,1,0.8011807,left,0.8903858188888889,0.479310467113488,9,0,0
3974,nb2TestingBlock,5,4,right,0,1.1528831,left,0.8903858188888889,0.479310467113488,9,0,0
3974,nb2TestingBlock,0,4,right,0,1.0027688,left,0.8903858188888889,0.479310467113488,9,0,0
3974,nb2TestingBlock,5,0,left,0,0.7706369,right,0.8903858188888889,0.479310467113488,9,0,0
3974,nb2TestingBlock,3,3,right,0,0.8663843,left,0.8903858188888889,0.479310467113488,9,0,0
3974,nb2TestingBlock,1,4,right,0,0.7495784,left,0.8903858188888889,0.479310467113488,9,0,0
3974,nb2TestingBlock,1,2,right,0,0.8202136,left,0.8903858188888889,0.479310467113488,9,0,0
3974,nb2TestingBlock,12,4,right,1,1.0291176,right,0.8903858188888889,0.479310467113488,9,0,0
3974,nb2TestingBlock,14,2,right,0,4.680661,left,0.8903858188888889,0.479310467113488,9,1,0
3974,nb2TestingBlock,11,1,right,0,1.5609893,left,0.8903858188888889,0.479310467113488,9,0,0
3974,nb2TestingBlock,14,0,left,0,1.4970477,right,0.8903858188888889,0.479310467113488,9,0,0
3974,nb2TestingBlock,14,3,right,0,0.8253633,left,0.8903858188888889,0.479310467113488,9,0,0
3974,nb2TestingBlock,12,2,right,0,1.2048365,left,0.8903858188888889,0.479310467113488,9,0,0
3974,nb2TestingBlock,0,1,right,0,1.7373056,left,0.8903858188888889,0.479310467113488,9,0,0
3974,nb2TestingBlock,8,4,right,0,1.2408448,left,0.8903858188888889,0.479310467113488,9,0,0
3974,nb2TestingBlock,0,0,left,0,1.2896141,right,0.8903858188888889,0.479310467113488,9,0,0
3974,nb2TestingBlock,11,3,right,0,0.7605374,left,0.8903858188888889,0.479310467113488,9,0,0
3974,nb2TestingBlock,13,2,right,0,1.1767621,left,0.8903858188888889,0.479310467113488,9,0,0
3974,nb2TestingBlock,11,0,left,1,0.8411268,left,0.8903858188888889,0.479310467113488,9,0,0
3974,nb2TestingBlock,11,2,right,0,0.9054337,left,0.8903858188888889,0.479310467113488,9,0,0
3974,nb2TestingBlock,11,0,left,1,0.5336999,left,0.8903858188888889,0.479310467113488,9,0,0
3974,nb2TestingBlock,8,3,right,1,1.2026762,right,0.8903858188888889,0.479310467113488,9,0,0
3974,nb2TestingBlock,9,2,right,1,0.9201804,right,0.8903858188888889,0.479310467113488,9,0,0
3974,nb2TestingBlock,9,1,right,0,0.729399,left,0.8903858188888889,0.479310467113488,9,0,0
3974,nb2TestingBlock,7,2,right,0,0.6890458,left,0.8903858188888889,0.479310467113488,9,0,0
3974,nb2TestingBlock,9,0,left,1,0.6963772,left,0.8903858188888889,0.479310467113488,9,0,0
3974,nb2TestingBlock,7,0,left,1,0.6743279,left,0.8903858188888889,0.479310467113488,9,0,0
3974,nb2TestingBlock,8,1,right,0,0.7020955,left,0.8903858188888889,0.479310467113488,9,0,0
3974,nb2TestingBlock,3,4,right,1,0.9570683,right,0.8903858188888889,0.479310467113488,9,0,0
3974,nb2TestingBlock,8,0,left,1,0.5824916,left,0.8903858188888889,0.479310467113488,9,0,0
3974,nb2TestingBlock,6,3,right,0,1.0603844,left,0.8903858188888889,0.479310467113488,9,0,0
3974,nb2TestingBlock,10,2,right,0,0.889706,left,0.8903858188888889,0.479310467113488,9,0,0
3974,nb2TestingBlock,6,0,left,1,0.8642736,left,0.8903858188888889,0.479310467113488,9,0,0
3974,nb2TestingBlock,10,0,left,1,0.4759613,left,0.8903858188888889,0.479310467113488,9,0,0
3974,nb2TestingBlock,5,1,right,0,0.6794911,left,0.8903858188888889,0.479310467113488,9,0,0
3974,nb2TestingBlock,10,0,left,1,0.5266729,left,0.8903858188888889,0.479310467113488,9,0,0
3974,nb2TestingBlock,5,0,left,1,0.4249848,left,0.8903858188888889,0.479310467113488,9,0,0
3974,nb2TestingBlock,7,3,right,1,0.6606923,right,0.8903858188888889,0.479310467113488,9,0,0
3974,nb2TestingBlock,3,2,right,0,1.2680096,left,0.8903858188888889,0.479310467113488,9,0,0
3974,nb2TestingBlock,10,3,right,0,0.6808803,left,0.8903858188888889,0.479310467113488,9,0,0
3974,nb2TestingBlock,7,4,right,0,0.6332561,left,0.8903858188888889,0.479310467113488,9,0,0
3974,nb2TestingBlock,14,4,right,0,0.9834084,left,0.8903858188888889,0.479310467113488,9,0,0
3974,nb2TestingBlock,6,1,right,0,0.9642599,left,0.8903858188888889,0.479310467113488,9,0,0
3974,nb2TestingBlock,14,0,left,0,0.9125106,right,0.8903858188888889,0.479310467113488,9,0,0
3974,nb2TestingBlock,2,4,right,1,1.0556741,right,0.8903858188888889,0.479310467113488,9,0,0
3974,nb2TestingBlock,13,1,right,1,0.808866,right,0.8903858188888889,0.479310467113488,9,0,0
3974,nb2TestingBlock,1,1,right,1,1.1526311,right,0.8903858188888889,0.479310467113488,9,0,0
3974,nb2TestingBlock,0,2,right,0,0.5203467,left,0.8903858188888889,0.479310467113488,9,0,0
3974,nb2TestingBlock,4,3,right,0,1.129497,left,0.8903858188888889,0.479310467113488,9,0,0
3974,nb2TestingBlock,4,4,right,0,0.6329628,left,0.8903858188888889,0.479310467113488,9,0,0
3974,nb2TestingBlock,8,4,right,0,0.5826607,left,0.8903858188888889,0.479310467113488,9,0,0
3974,nb2TestingBlock,4,0,left,1,0.6760507,left,0.8903858188888889,0.479310467113488,9,0,0
3974,nb2TestingBlock,8,0,left,1,0.7032046,left,0.8903858188888889,0.479310467113488,9,0,0
3974,nb2TestingBlock,2,2,right,0,0.8125431,left,0.8903858188888889,0.479310467113488,9,0,0
3974,nb2TestingBlock,5,3,right,0,0.9868687,left,0.8903858188888889,0.479310467113488,9,0,0
3974,nb2TestingBlock,2,0,left,1,0.7087046,left,0.8903858188888889,0.479310467113488,9,0,0
3974,nb2TestingBlock,2,3,right,0,0.4921198,left,0.8903858188888889,0.479310467113488,9,0,0
3974,nb2TestingBlock,13,4,right,0,0.6179574,left,0.8903858188888889,0.479310467113488,9,0,0
3974,nb2TestingBlock,2,0,left,0,0.8349937,right,0.8903858188888889,0.479310467113488,9,0,0
3974,nb2TestingBlock,13,0,left,1,0.6066577,left,0.8903858188888889,0.479310467113488,9,0,0
3974,nb2TestingBlock,14,3,right,1,0.8564402,right,0.8903858188888889,0.479310467113488,9,0,0
3974,nb2TestingBlock,13,0,left,1,0.6587303,left,0.8903858188888889,0.479310467113488,9,0,0
3974,nb2TestingBlock,12,2,right,0,0.3299973,left,0.8903858188888889,0.479310467113488,9,0,0
3974,nb2TestingBlock,12,1,right,0,0.3465337,left,0.8903858188888889,0.479310467113488,9,0,0
3974,nb2TestingBlock,1,4,right,0,0.6442365,left,0.8903858188888889,0.479310467113488,9,0,0
3974,nb2TestingBlock,12,0,left,0,0.9928708,right,0.8903858188888889,0.479310467113488,9,0,0
3974,nb2TestingBlock,0,1,right,0,0.878772,left,0.8903858188888889,0.479310467113488,9,0,0
3974,nb2TestingBlock,12,0,left,0,0.6782106,right,0.8903858188888889,0.479310467113488,9,0,0
3974,nb2TestingBlock,0,0,left,1,0.4467762,left,0.8903858188888889,0.479310467113488,9,0,0
3974,nb2TestingBlock,12,0,left,1,0.5845814,left,0.8903858188888889,0.479310467113488,9,0,0
3975,nb1TestingBlock,11,0,left,1,0.5735032,left,0.7269352466666666,0.1678222410732707,3,0,0
3975,nb1TestingBlock,7,4,right,1,0.5514068,right,0.7269352466666666,0.1678222410732707,3,0,0
3975,nb1TestingBlock,8,1,right,1,0.8015787,right,0.7269352466666666,0.1678222410732707,3,0,0
3975,nb1TestingBlock,12,4,right,1,0.7806705,right,0.7269352466666666,0.1678222410732707,3,0,0
3975,nb1TestingBlock,12,0,left,1,0.5218766,left,0.7269352466666666,0.1678222410732707,3,0,0
3975,nb1TestingBlock,0,3,right,1,0.7574237,right,0.7269352466666666,0.1678222410732707,3,0,0
3975,nb1TestingBlock,0,0,left,1,0.6204329,left,0.7269352466666666,0.1678222410732707,3,0,0
3975,nb1TestingBlock,1,1,right,1,0.8573388,right,0.7269352466666666,0.1678222410732707,3,0,0
3975,nb1TestingBlock,3,2,right,1,0.9274639,right,0.7269352466666666,0.1678222410732707,3,0,0
3975,nb1TestingBlock,2,1,right,1,0.741497,right,0.7269352466666666,0.1678222410732707,3,0,0
3975,nb1TestingBlock,6,4,right,1,0.7060723,right,0.7269352466666666,0.1678222410732707,3,0,0
3975,nb1TestingBlock,6,0,left,1,0.6345152,left,0.7269352466666666,0.1678222410732707,3,0,0
3975,nb1TestingBlock,6,0,left,1,0.6120299,left,0.7269352466666666,0.1678222410732707,3,0,0
3975,nb1TestingBlock,10,4,right,1,0.5912364,right,0.7269352466666666,0.1678222410732707,3,0,0
3975,nb1TestingBlock,8,2,right,1,0.7319865,right,0.7269352466666666,0.1678222410732707,3,0,0
3975,nb1TestingBlock,8,0,left,1,0.407865,left,0.7269352466666666,0.1678222410732707,3,0,0
3975,nb1TestingBlock,6,2,right,1,0.669274,right,0.7269352466666666,0.1678222410732707,3,0,0
3975,nb1TestingBlock,9,3,right,1,0.833345,right,0.7269352466666666,0.1678222410732707,3,0,0
3975,nb1TestingBlock,9,0,left,1,0.6525374,left,0.7269352466666666,0.1678222410732707,3,0,0
3975,nb1TestingBlock,5,4,right,1,0.8552092,right,0.7269352466666666,0.1678222410732707,3,0,0
3975,nb1TestingBlock,4,1,right,1,0.7348276,right,0.7269352466666666,0.1678222410732707,3,0,0
3975,nb1TestingBlock,4,0,left,1,0.6150587,left,0.7269352466666666,0.1678222410732707,3,0,0
3975,nb1TestingBlock,2,2,right,1,0.7038301,right,0.7269352466666666,0.1678222410732707,3,0,0
3975,nb1TestingBlock,14,3,right,1,1.208588,right,0.7269352466666666,0.1678222410732707,3,0,0
3975,nb1TestingBlock,11,3,right,1,0.7574086,right,0.7269352466666666,0.1678222410732707,3,0,0
3975,nb1TestingBlock,13,2,right,1,0.6192556,right,0.7269352466666666,0.1678222410732707,3,0,0
3975,nb1TestingBlock,13,0,left,1,0.7036893,left,0.7269352466666666,0.1678222410732707,3,0,0
3975,nb1TestingBlock,14,1,right,0,1.1778179,left,0.7269352466666666,0.1678222410732707,3,0,0
3975,nb1TestingBlock,2,3,right,1,0.7589651,right,0.7269352466666666,0.1678222410732707,3,0,0
3975,nb1TestingBlock,2,0,left,1,0.7013535,left,0.7269352466666666,0.1678222410732707,3,0,0
3975,nb2TestingBlock,3,0,left,1,0.969974,left,1.1647604633333333,0.3126018390388407,9,0,0
3975,nb2TestingBlock,9,3,right,1,0.7474121,right,1.1647604633333333,0.3126018390388407,9,0,0
3975,nb2TestingBlock,2,1,right,1,1.1563771,right,1.1647604633333333,0.3126018390388407,9,0,0
3975,nb2TestingBlock,9,0,left,1,0.9531326,left,1.1647604633333333,0.3126018390388407,9,0,0
3975,nb2TestingBlock,4,2,right,1,1.0307875,right,1.1647604633333333,0.3126018390388407,9,0,0
3975,nb2TestingBlock,10,1,right,0,0.9367104,left,1.1647604633333333,0.3126018390388407,9,0,0
3975,nb2TestingBlock,6,2,right,1,1.2505596,right,1.1647604633333333,0.3126018390388407,9,0,0
3975,nb2TestingBlock,6,4,right,0,0.6652931,left,1.1647604633333333,0.3126018390388407,9,0,0
3975,nb2TestingBlock,7,1,right,0,0.9644869,left,1.1647604633333333,0.3126018390388407,9,0,0
3975,nb2TestingBlock,6,0,left,0,1.2973655,right,1.1647604633333333,0.3126018390388407,9,0,0
3975,nb2TestingBlock,5,2,right,0,0.7935348,left,1.1647604633333333,0.3126018390388407,9,0,0
3975,nb2TestingBlock,10,4,right,1,0.8222747,right,1.1647604633333333,0.3126018390388407,9,0,0
3975,nb2TestingBlock,2,3,right,0,1.3329088,left,1.1647604633333333,0.3126018390388407,9,0,0
3975,nb2TestingBlock,13,3,right,1,1.1288741,right,1.1647604633333333,0.3126018390388407,9,0,0
3975,nb2TestingBlock,3,1,right,1,1.1132786,right,1.1647604633333333,0.3126018390388407,9,0,0
3975,nb2TestingBlock,1,3,right,1,1.0660196,right,1.1647604633333333,0.3126018390388407,9,0,0
3975,nb2TestingBlock,3,0,left,1,1.1924888,left,1.1647604633333333,0.3126018390388407,9,0,0
3975,nb2TestingBlock,1,0,left,0,1.0482037,right,1.1647604633333333,0.3126018390388407,9,0,0
3975,nb2TestingBlock,4,1,right,1,1.0965433,right,1.1647604633333333,0.3126018390388407,9,0,0
3975,nb2TestingBlock,1,0,left,1,1.3537218,left,1.1647604633333333,0.3126018390388407,9,0,0
3975,nb2TestingBlock,4,0,left,0,0.9687037,right,1.1647604633333333,0.3126018390388407,9,0,0
3975,nb2TestingBlock,5,4,right,1,1.0724836,right,1.1647604633333333,0.3126018390388407,9,0,0
3975,nb2TestingBlock,0,4,right,0,1.04979,left,1.1647604633333333,0.3126018390388407,9,0,0
3975,nb2TestingBlock,5,0,left,0,0.7450904,right,1.1647604633333333,0.3126018390388407,9,0,0
3975,nb2TestingBlock,3,3,right,1,1.7975035,right,1.1647604633333333,0.3126018390388407,9,0,0
3975,nb2TestingBlock,1,4,right,1,1.8489079,right,1.1647604633333333,0.3126018390388407,9,0,0
3975,nb2TestingBlock,1,2,right,0,1.2249073,left,1.1647604633333333,0.3126018390388407,9,0,0
3975,nb2TestingBlock,12,4,right,1,1.4172876,right,1.1647604633333333,0.3126018390388407,9,0,0
3975,nb2TestingBlock,14,2,right,1,1.7210274,right,1.1647604633333333,0.3126018390388407,9,0,0
3975,nb2TestingBlock,11,1,right,1,1.2409056,right,1.1647604633333333,0.3126018390388407,9,0,0
3975,nb2TestingBlock,14,0,left,0,2.6802159,right,1.1647604633333333,0.3126018390388407,9,1,0
3975,nb2TestingBlock,14,3,right,1,1.9287886,right,1.1647604633333333,0.3126018390388407,9,0,0
3975,nb2TestingBlock,12,2,right,0,1.5759537,left,1.1647604633333333,0.3126018390388407,9,0,0
3975,nb2TestingBlock,0,1,right,0,1.3678225,left,1.1647604633333333,0.3126018390388407,9,0,0
3975,nb2TestingBlock,8,4,right,1,0.9373428,right,1.1647604633333333,0.3126018390388407,9,0,0
3975,nb2TestingBlock,0,0,left,1,1.2994816,left,1.1647604633333333,0.3126018390388407,9,0,0
3975,nb2TestingBlock,11,3,right,1,1.3532346,right,1.1647604633333333,0.3126018390388407,9,0,0
3975,nb2TestingBlock,13,2,right,1,1.5289206,right,1.1647604633333333,0.3126018390388407,9,0,0
3975,nb2TestingBlock,11,0,left,1,1.3363805,left,1.1647604633333333,0.3126018390388407,9,0,0
3975,nb2TestingBlock,11,2,right,1,1.304894,right,1.1647604633333333,0.3126018390388407,9,0,0
3975,nb2TestingBlock,11,0,left,1,1.0336748,left,1.1647604633333333,0.3126018390388407,9,0,0
3975,nb2TestingBlock,8,3,right,1,1.4975941,right,1.1647604633333333,0.3126018390388407,9,0,0
3975,nb2TestingBlock,9,2,right,1,1.0806435,right,1.1647604633333333,0.3126018390388407,9,0,0
3975,nb2TestingBlock,9,1,right,1,1.2566309,right,1.1647604633333333,0.3126018390388407,9,0,0
3975,nb2TestingBlock,7,2,right,1,1.257311,right,1.1647604633333333,0.3126018390388407,9,0,0
3975,nb2TestingBlock,9,0,left,1,0.8889524,left,1.1647604633333333,0.3126018390388407,9,0,0
3975,nb2TestingBlock,7,0,left,0,1.200838,right,1.1647604633333333,0.3126018390388407,9,0,0
3975,nb2TestingBlock,8,1,right,0,0.9526323,left,1.1647604633333333,0.3126018390388407,9,0,0
3975,nb2TestingBlock,3,4,right,1,0.8229609,right,1.1647604633333333,0.3126018390388407,9,0,0
3975,nb2TestingBlock,8,0,left,0,1.108545,right,1.1647604633333333,0.3126018390388407,9,0,0
3975,nb2TestingBlock,6,3,right,1,1.1122805,right,1.1647604633333333,0.3126018390388407,9,0,0
3975,nb2TestingBlock,10,2,right,1,1.3688001,right,1.1647604633333333,0.3126018390388407,9,0,0
3975,nb2TestingBlock,6,0,left,1,1.3370775,left,1.1647604633333333,0.3126018390388407,9,0,0
3975,nb2TestingBlock,10,0,left,0,1.0966503,right,1.1647604633333333,0.3126018390388407,9,0,0
3975,nb2TestingBlock,5,1,right,1,1.1936248,right,1.1647604633333333,0.3126018390388407,9,0,0
3975,nb2TestingBlock,10,0,left,0,0.9689272,right,1.1647604633333333,0.3126018390388407,9,0,0
3975,nb2TestingBlock,5,0,left,1,0.9286528,left,1.1647604633333333,0.3126018390388407,9,0,0
3975,nb2TestingBlock,7,3,right,1,1.2401868,right,1.1647604633333333,0.3126018390388407,9,0,0
3975,nb2TestingBlock,3,2,right,1,0.8577918,right,1.1647604633333333,0.3126018390388407,9,0,0
3975,nb2TestingBlock,10,3,right,1,1.2510025,right,1.1647604633333333,0.3126018390388407,9,0,0
3975,nb2TestingBlock,7,4,right,0,1.0331342,left,1.1647604633333333,0.3126018390388407,9,0,0
3975,nb2TestingBlock,14,4,right,1,0.8730234,right,1.1647604633333333,0.3126018390388407,9,0,0
3975,nb2TestingBlock,6,1,right,1,0.9029457,right,1.1647604633333333,0.3126018390388407,9,0,0
3975,nb2TestingBlock,14,0,left,1,0.8852937,left,1.1647604633333333,0.3126018390388407,9,0,0
3975,nb2TestingBlock,2,4,right,1,1.5377679,right,1.1647604633333333,0.3126018390388407,9,0,0
3975,nb2TestingBlock,13,1,right,1,1.67275,right,1.1647604633333333,0.3126018390388407,9,0,0
3975,nb2TestingBlock,1,1,right,0,0.8882548,left,1.1647604633333333,0.3126018390388407,9,0,0
3975,nb2TestingBlock,0,2,right,1,1.0878427,right,1.1647604633333333,0.3126018390388407,9,0,0
3975,nb2TestingBlock,4,3,right,1,0.9846212,right,1.1647604633333333,0.3126018390388407,9,0,0
3975,nb2TestingBlock,4,4,right,1,0.9160411,right,1.1647604633333333,0.3126018390388407,9,0,0
3975,nb2TestingBlock,8,4,right,1,0.8934608,right,1.1647604633333333,0.3126018390388407,9,0,0
3975,nb2TestingBlock,4,0,left,1,1.2587269,left,1.1647604633333333,0.3126018390388407,9,0,0
3975,nb2TestingBlock,8,0,left,1,1.0493883,left,1.1647604633333333,0.3126018390388407,9,0,0
3975,nb2TestingBlock,2,2,right,1,0.937354,right,1.1647604633333333,0.3126018390388407,9,0,0
3975,nb2TestingBlock,5,3,right,1,1.1554502,right,1.1647604633333333,0.3126018390388407,9,0,0
3975,nb2TestingBlock,2,0,left,1,0.6810039,left,1.1647604633333333,0.3126018390388407,9,0,0
3975,nb2TestingBlock,2,3,right,1,0.8080359,right,1.1647604633333333,0.3126018390388407,9,0,0
3975,nb2TestingBlock,13,4,right,1,0.9288257,right,1.1647604633333333,0.3126018390388407,9,0,0
3975,nb2TestingBlock,2,0,left,1,1.5767114,left,1.1647604633333333,0.3126018390388407,9,0,0
3975,nb2TestingBlock,13,0,left,1,1.2729057,left,1.1647604633333333,0.3126018390388407,9,0,0
3975,nb2TestingBlock,14,3,right,1,1.129484,right,1.1647604633333333,0.3126018390388407,9,0,0
3975,nb2TestingBlock,13,0,left,1,1.3536067,left,1.1647604633333333,0.3126018390388407,9,0,0
3975,nb2TestingBlock,12,2,right,0,1.3218461,left,1.1647604633333333,0.3126018390388407,9,0,0
3975,nb2TestingBlock,12,1,right,0,1.2568327,left,1.1647604633333333,0.3126018390388407,9,0,0
3975,nb2TestingBlock,1,4,right,1,1.1606246,right,1.1647604633333333,0.3126018390388407,9,0,0
3975,nb2TestingBlock,12,0,left,1,1.6089366,left,1.1647604633333333,0.3126018390388407,9,0,0
3975,nb2TestingBlock,0,1,right,0,0.8260214,left,1.1647604633333333,0.3126018390388407,9,0,0
3975,nb2TestingBlock,12,0,left,1,0.9649611,left,1.1647604633333333,0.3126018390388407,9,0,0
3975,nb2TestingBlock,0,0,left,1,1.3118421,left,1.1647604633333333,0.3126018390388407,9,0,0
3975,nb2TestingBlock,12,0,left,1,0.7763829,left,1.1647604633333333,0.3126018390388407,9,0,0
3976,nb1TestingBlock,11,0,left,1,0.7807001,left,0.7433730166666667,0.14984543107209092,3,0,0
3976,nb1TestingBlock,7,4,right,1,0.6820911,right,0.7433730166666667,0.14984543107209092,3,0,0
3976,nb1TestingBlock,8,1,right,1,0.8999855,right,0.7433730166666667,0.14984543107209092,3,0,0
3976,nb1TestingBlock,12,4,right,1,0.7998562,right,0.7433730166666667,0.14984543107209092,3,0,0
3976,nb1TestingBlock,12,0,left,1,0.7061598,left,0.7433730166666667,0.14984543107209092,3,0,0
3976,nb1TestingBlock,0,3,right,1,0.6013184,right,0.7433730166666667,0.14984543107209092,3,0,0
3976,nb1TestingBlock,0,0,left,1,0.7255004,left,0.7433730166666667,0.14984543107209092,3,0,0
3976,nb1TestingBlock,1,1,right,1,0.7814855,right,0.7433730166666667,0.14984543107209092,3,0,0
3976,nb1TestingBlock,3,2,right,1,1.1930359,right,0.7433730166666667,0.14984543107209092,3,1,0
3976,nb1TestingBlock,2,1,right,0,0.6941079,left,0.7433730166666667,0.14984543107209092,3,0,0
3976,nb1TestingBlock,6,4,right,1,0.6391158,right,0.7433730166666667,0.14984543107209092,3,0,0
3976,nb1TestingBlock,6,0,left,1,0.6427971,left,0.7433730166666667,0.14984543107209092,3,0,0
3976,nb1TestingBlock,6,0,left,1,0.6857483,left,0.7433730166666667,0.14984543107209092,3,0,0
3976,nb1TestingBlock,10,4,right,1,0.6943507,right,0.7433730166666667,0.14984543107209092,3,0,0
3976,nb1TestingBlock,8,2,right,1,0.656159,right,0.7433730166666667,0.14984543107209092,3,0,0
3976,nb1TestingBlock,8,0,left,1,0.6316323,left,0.7433730166666667,0.14984543107209092,3,0,0
3976,nb1TestingBlock,6,2,right,1,0.86596359999999994,right,0.7433730166666667,0.14984543107209092,3,0,0
3976,nb1TestingBlock,9,3,right,1,0.8431244,right,0.7433730166666667,0.14984543107209092,3,0,0
3976,nb1TestingBlock,9,0,left,1,0.6299326,left,0.7433730166666667,0.14984543107209092,3,0,0
3976,nb1TestingBlock,5,4,right,1,0.6910148,right,0.7433730166666667,0.14984543107209092,3,0,0
3976,nb1TestingBlock,4,1,right,1,0.7507505,right,0.7433730166666667,0.14984543107209092,3,0,0
3976,nb1TestingBlock,4,0,left,1,0.7307707,left,0.7433730166666667,0.14984543107209092,3,0,0
3976,nb1TestingBlock,2,2,right,1,0.6953155,right,0.7433730166666667,0.14984543107209092,3,0,0
3976,nb1TestingBlock,14,3,right,1,0.7033391,right,0.7433730166666667,0.14984543107209092,3,0,0
3976,nb1TestingBlock,11,3,right,1,0.7297955,right,0.7433730166666667,0.14984543107209092,3,0,0
3976,nb1TestingBlock,13,2,right,1,0.6847351,right,0.7433730166666667,0.14984543107209092,3,0,0
3976,nb1TestingBlock,13,0,left,1,0.5798848,left,0.7433730166666667,0.14984543107209092,3,0,0
3976,nb1TestingBlock,14,1,right,1,1.2491768,right,0.7433730166666667,0.14984543107209092,3,1,0
3976,nb1TestingBlock,2,3,right,1,0.6459488,right,0.7433730166666667,0.14984543107209092,3,0,0
3976,nb1TestingBlock,2,0,left,1,0.6873943,left,0.7433730166666667,0.14984543107209092,3,0,0
3976,nb2TestingBlock,3,0,left,1,0.8400235,left,0.8936637155555556,0.41343635725419564,9,0,0
3976,nb2TestingBlock,9,3,right,1,3.7203704,right,0.8936637155555556,0.41343635725419564,9,1,0
3976,nb2TestingBlock,2,1,right,0,1.0640517,left,0.8936637155555556,0.41343635725419564,9,0,0
3976,nb2TestingBlock,9,0,left,0,0.664812,right,0.8936637155555556,0.41343635725419564,9,0,0
3976,nb2TestingBlock,4,2,right,1,1.1256748,right,0.8936637155555556,0.41343635725419564,9,0,0
3976,nb2TestingBlock,10,1,right,0,0.4567309,left,0.8936637155555556,0.41343635725419564,9,0,0
3976,nb2TestingBlock,6,2,right,1,0.7057578,right,0.8936637155555556,0.41343635725419564,9,0,0
3976,nb2TestingBlock,6,4,right,1,0.7006519,right,0.8936637155555556,0.41343635725419564,9,0,0
3976,nb2TestingBlock,7,1,right,1,0.7810294,right,0.8936637155555556,0.41343635725419564,9,0,0
3976,nb2TestingBlock,6,0,left,1,0.7472357,left,0.8936637155555556,0.41343635725419564,9,0,0
3976,nb2TestingBlock,5,2,right,1,0.7572751,right,0.8936637155555556,0.41343635725419564,9,0,0
3976,nb2TestingBlock,10,4,right,0,0.7352501,left,0.8936637155555556,0.41343635725419564,9,0,0
3976,nb2TestingBlock,2,3,right,1,0.9547976,right,0.8936637155555556,0.41343635725419564,9,0,0
3976,nb2TestingBlock,13,3,right,1,0.6465464,right,0.8936637155555556,0.41343635725419564,9,0,0
3976,nb2TestingBlock,3,1,right,1,1.3447587,right,0.8936637155555556,0.41343635725419564,9,0,0
3976,nb2TestingBlock,1,3,right,0,0.5850244,left,0.8936637155555556,0.41343635725419564,9,0,0
3976,nb2TestingBlock,3,0,left,0,0.4366874,right,0.8936637155555556,0.41343635725419564,9,0,0
3976,nb2TestingBlock,1,0,left,1,1.0223379,left,0.8936637155555556,0.41343635725419564,9,0,0
3976,nb2TestingBlock,4,1,right,1,0.6168465,right,0.8936637155555556,0.41343635725419564,9,0,0
3976,nb2TestingBlock,1,0,left,1,0.6101539,left,0.8936637155555556,0.41343635725419564,9,0,0
3976,nb2TestingBlock,4,0,left,0,0.7705903,right,0.8936637155555556,0.41343635725419564,9,0,0
3976,nb2TestingBlock,5,4,right,1,0.6430212,right,0.8936637155555556,0.41343635725419564,9,0,0
3976,nb2TestingBlock,0,4,right,1,0.9135837,right,0.8936637155555556,0.41343635725419564,9,0,0
3976,nb2TestingBlock,5,0,left,1,0.9099433,left,0.8936637155555556,0.41343635725419564,9,0,0
3976,nb2TestingBlock,3,3,right,0,0.8149517,left,0.8936637155555556,0.41343635725419564,9,0,0
3976,nb2TestingBlock,1,4,right,0,0.9547156,left,0.8936637155555556,0.41343635725419564,9,0,0
3976,nb2TestingBlock,1,2,right,1,0.6941552,right,0.8936637155555556,0.41343635725419564,9,0,0
3976,nb2TestingBlock,12,4,right,1,0.8351247,right,0.8936637155555556,0.41343635725419564,9,0,0
3976,nb2TestingBlock,14,2,right,1,0.7344467,right,0.8936637155555556,0.41343635725419564,9,0,0
3976,nb2TestingBlock,11,1,right,0,0.8421409,left,0.8936637155555556,0.41343635725419564,9,0,0
3976,nb2TestingBlock,14,0,left,0,0.9372456,right,0.8936637155555556,0.41343635725419564,9,0,0
3976,nb2TestingBlock,14,3,right,0,0.5628914,left,0.8936637155555556,0.41343635725419564,9,0,0
3976,nb2TestingBlock,12,2,right,0,0.769063,left,0.8936637155555556,0.41343635725419564,9,0,0
3976,nb2TestingBlock,0,1,right,1,0.7609674,right,0.8936637155555556,0.41343635725419564,9,0,0
3976,nb2TestingBlock,8,4,right,1,1.0027495,right,0.8936637155555556,0.41343635725419564,9,0,0
3976,nb2TestingBlock,0,0,left,1,0.7012953,left,0.8936637155555556,0.41343635725419564,9,0,0
3976,nb2TestingBlock,11,3,right,1,0.7171656,right,0.8936637155555556,0.41343635725419564,9,0,0
3976,nb2TestingBlock,13,2,right,1,1.0143124,right,0.8936637155555556,0.41343635725419564,9,0,0
3976,nb2TestingBlock,11,0,left,1,0.425322,left,0.8936637155555556,0.41343635725419564,9,0,0
3976,nb2TestingBlock,11,2,right,0,0.5487745,left,0.8936637155555556,0.41343635725419564,9,0,0
3976,nb2TestingBlock,11,0,left,1,0.6691993,left,0.8936637155555556,0.41343635725419564,9,0,0
3976,nb2TestingBlock,8,3,right,1,0.6286147,right,0.8936637155555556,0.41343635725419564,9,0,0
3976,nb2TestingBlock,9,2,right,0,1.0840064,left,0.8936637155555556,0.41343635725419564,9,0,0
3976,nb2TestingBlock,9,1,right,1,0.3772443,right,0.8936637155555556,0.41343635725419564,9,0,0
3976,nb2TestingBlock,7,2,right,1,1.0584159,right,0.8936637155555556,0.41343635725419564,9,0,0
3976,nb2TestingBlock,9,0,left,1,0.473557,left,0.8936637155555556,0.41343635725419564,9,0,0
3976,nb2TestingBlock,7,0,left,1,0.7583289,left,0.8936637155555556,0.41343635725419564,9,0,0
3976,nb2TestingBlock,8,1,right,1,1.1514881,right,0.8936637155555556,0.41343635725419564,9,0,0
3976,nb2TestingBlock,3,4,right,1,0.8575141,right,0.8936637155555556,0.41343635725419564,9,0,0
3976,nb2TestingBlock,8,0,left,1,1.0261147,left,0.8936637155555556,0.41343635725419564,9,0,0
3976,nb2TestingBlock,6,3,right,1,0.6652063,right,0.8936637155555556,0.41343635725419564,9,0,0
3976,nb2TestingBlock,10,2,right,1,1.3011432,right,0.8936637155555556,0.41343635725419564,9,0,0
3976,nb2TestingBlock,6,0,left,0,0.7768187,right,0.8936637155555556,0.41343635725419564,9,0,0
3976,nb2TestingBlock,10,0,left,1,1.3792728,left,0.8936637155555556,0.41343635725419564,9,0,0
3976,nb2TestingBlock,5,1,right,1,0.9694931,right,0.8936637155555556,0.41343635725419564,9,0,0
3976,nb2TestingBlock,10,0,left,1,1.2002269,left,0.8936637155555556,0.41343635725419564,9,0,0
3976,nb2TestingBlock,5,0,left,1,1.2240976,left,0.8936637155555556,0.41343635725419564,9,0,0
3976,nb2TestingBlock,7,3,right,1,1.2245371,right,0.8936637155555556,0.41343635725419564,9,0,0
3976,nb2TestingBlock,3,2,right,1,0.985434,right,0.8936637155555556,0.41343635725419564,9,0,0
3976,nb2TestingBlock,10,3,right,0,0.6771477,left,0.8936637155555556,0.41343635725419564,9,0,0
3976,nb2TestingBlock,7,4,right,1,0.6699061,right,0.8936637155555556,0.41343635725419564,9,0,0
3976,nb2TestingBlock,14,4,right,1,0.8136798,right,0.8936637155555556,0.41343635725419564,9,0,0
3976,nb2TestingBlock,6,1,right,0,1.1794485,left,0.8936637155555556,0.41343635725419564,9,0,0
3976,nb2TestingBlock,14,0,left,1,0.7287943,left,0.8936637155555556,0.41343635725419564,9,0,0
3976,nb2TestingBlock,2,4,right,1,0.9135067,right,0.8936637155555556,0.41343635725419564,9,0,0
3976,nb2TestingBlock,13,1,right,0,1.1993609,left,0.8936637155555556,0.41343635725419564,9,0,0
3976,nb2TestingBlock,1,1,right,0,1.4323259,left,0.8936637155555556,0.41343635725419564,9,0,0
3976,nb2TestingBlock,0,2,right,1,1.3209915,right,0.8936637155555556,0.41343635725419564,9,0,0
3976,nb2TestingBlock,4,3,right,0,0.7456231,left,0.8936637155555556,0.41343635725419564,9,0,0
3976,nb2TestingBlock,4,4,right,1,0.5801984,right,0.8936637155555556,0.41343635725419564,9,0,0
3976,nb2TestingBlock,8,4,right,1,1.0928771,right,0.8936637155555556,0.41343635725419564,9,0,0
3976,nb2TestingBlock,4,0,left,0,1.7050167,right,0.8936637155555556,0.41343635725419564,9,0,0
3976,nb2TestingBlock,8,0,left,0,1.0172759,right,0.8936637155555556,0.41343635725419564,9,0,0
3976,nb2TestingBlock,2,2,right,1,1.7371316,right,0.8936637155555556,0.41343635725419564,9,0,0
3976,nb2TestingBlock,5,3,right,0,0.6166641,left,0.8936637155555556,0.41343635725419564,9,0,0
3976,nb2TestingBlock,2,0,left,0,1.0587256,right,0.8936637155555556,0.41343635725419564,9,0,0
3976,nb2TestingBlock,2,3,right,1,1.3857154,right,0.8936637155555556,0.41343635725419564,9,0,0
3976,nb2TestingBlock,13,4,right,1,1.1446217,right,0.8936637155555556,0.41343635725419564,9,0,0
3976,nb2TestingBlock,2,0,left,1,0.6162258,left,0.8936637155555556,0.41343635725419564,9,0,0
3976,nb2TestingBlock,13,0,left,1,0.7231405,left,0.8936637155555556,0.41343635725419564,9,0,0
3976,nb2TestingBlock,14,3,right,1,0.6250237,right,0.8936637155555556,0.41343635725419564,9,0,0
3976,nb2TestingBlock,13,0,left,1,0.6691777,left,0.8936637155555556,0.41343635725419564,9,0,0
3976,nb2TestingBlock,12,2,right,1,0.773157,right,0.8936637155555556,0.41343635725419564,9,0,0
3976,nb2TestingBlock,12,1,right,0,0.8827893,left,0.8936637155555556,0.41343635725419564,9,0,0
3976,nb2TestingBlock,1,4,right,1,0.8487629,right,0.8936637155555556,0.41343635725419564,9,0,0
3976,nb2TestingBlock,12,0,left,1,1.2569507,left,0.8936637155555556,0.41343635725419564,9,0,0
3976,nb2TestingBlock,0,1,right,1,0.8084425,right,0.8936637155555556,0.41343635725419564,9,0,0
3976,nb2TestingBlock,12,0,left,1,0.4971342,left,0.8936637155555556,0.41343635725419564,9,0,0
3976,nb2TestingBlock,0,0,left,0,0.3793048,right,0.8936637155555556,0.41343635725419564,9,0,0
3976,nb2TestingBlock,12,0,left,1,0.4514251,left,0.8936637155555556,0.41343635725419564,9,0,0
3977,nb1TestingBlock,11,0,left,1,0.635268,left,0.6195796033333334,0.23230200936140108,3,0,0
3977,nb1TestingBlock,7,4,right,1,0.4186978,right,0.6195796033333334,0.23230200936140108,3,0,0
3977,nb1TestingBlock,8,1,right,0,0.6638927,left,0.6195796033333334,0.23230200936140108,3,0,0
3977,nb1TestingBlock,12,4,right,1,0.4960866,right,0.6195796033333334,0.23230200936140108,3,0,0
3977,nb1TestingBlock,12,0,left,1,0.5355976,left,0.6195796033333334,0.23230200936140108,3,0,0
3977,nb1TestingBlock,0,3,right,1,0.4648515,right,0.6195796033333334,0.23230200936140108,3,0,0
3977,nb1TestingBlock,0,0,left,1,0.5861935,left,0.6195796033333334,0.23230200936140108,3,0,0
