subject_id,trial_condition,trial_cue,trial_corr_resp,trial_shift,resp_corr,resp_rt,resp_value,mean_rt,sd_rt,exclude_thresh,exclude_trial,exclude_part
1903,color,color,right,0,1,0.754156903915,right,0.81675146914465,0.23940319275064176,2,0,0
1903,color,color,left,0,1,0.6798189732,left,0.81675146914465,0.23940319275064176,2,0,0
1903,color,color,right,0,1,1.21587590133,right,0.81675146914465,0.23940319275064176,2,0,0
1903,color,color,left,0,1,1.46381362965,left,0.81675146914465,0.23940319275064176,2,0,0
1903,color,color,left,0,1,0.87179397655,left,0.81675146914465,0.23940319275064176,2,0,0
1903,color,color,right,0,1,0.831812918141,right,0.81675146914465,0.23940319275064176,2,0,0
1903,color,color,left,0,1,1.00789399199,left,0.81675146914465,0.23940319275064176,2,0,0
1903,color,color,right,0,1,0.991822485086,right,0.81675146914465,0.23940319275064176,2,0,0
1903,color,color,right,0,1,0.607809980752,right,0.81675146914465,0.23940319275064176,2,0,0
1903,color,color,left,0,1,1.0478377922,left,0.81675146914465,0.23940319275064176,2,0,0
1903,color,color,right,0,1,0.751828867056,right,0.81675146914465,0.23940319275064176,2,0,0
1903,color,color,left,0,1,0.687870050593,left,0.81675146914465,0.23940319275064176,2,0,0
1903,color,color,right,0,1,0.855813211399,right,0.81675146914465,0.23940319275064176,2,0,0
1903,color,color,right,0,1,0.91981259123,right,0.81675146914465,0.23940319275064176,2,0,0
1903,color,color,left,0,1,0.607866468998,left,0.81675146914465,0.23940319275064176,2,0,0
1903,color,color,right,0,1,0.607814788262,right,0.81675146914465,0.23940319275064176,2,0,0
1903,color,color,right,0,1,0.743836982133,right,0.81675146914465,0.23940319275064176,2,0,0
1903,color,color,left,0,1,0.543883314514,left,0.81675146914465,0.23940319275064176,2,0,0
1903,color,color,left,0,1,0.551800683027,left,0.81675146914465,0.23940319275064176,2,0,0
1903,color,color,left,0,1,0.591865872867,left,0.81675146914465,0.23940319275064176,2,0,0
1903,shape,shape,left,0,0,0.53585236857,right,0.77103589227095,0.18419768292719038,2,0,0
1903,shape,shape,right,0,1,1.00783329718,right,0.77103589227095,0.18419768292719038,2,0,0
1903,shape,shape,left,0,1,0.759833371693,left,0.77103589227095,0.18419768292719038,2,0,0
1903,shape,shape,left,0,1,0.79981593245,left,0.77103589227095,0.18419768292719038,2,0,0
1903,shape,shape,left,0,1,0.61583882341,left,0.77103589227095,0.18419768292719038,2,0,0
1903,shape,shape,left,0,1,0.7038826655,left,0.77103589227095,0.18419768292719038,2,0,0
1903,shape,shape,right,0,1,0.831690627098,right,0.77103589227095,0.18419768292719038,2,0,0
1903,shape,shape,right,0,1,0.751923214446,right,0.77103589227095,0.18419768292719038,2,0,0
1903,shape,shape,left,0,1,0.847748913353,left,0.77103589227095,0.18419768292719038,2,0,0
1903,shape,shape,right,0,1,0.527858680831,right,0.77103589227095,0.18419768292719038,2,0,0
1903,shape,shape,right,0,1,0.687860135103,right,0.77103589227095,0.18419768292719038,2,0,0
1903,shape,shape,right,0,1,0.815791589621,right,0.77103589227095,0.18419768292719038,2,0,0
1903,shape,shape,left,0,1,0.719865834406,left,0.77103589227095,0.18419768292719038,2,0,0
1903,shape,shape,left,0,1,0.919839633475,left,0.77103589227095,0.18419768292719038,2,0,0
1903,shape,shape,left,0,1,1.36789027819,left,0.77103589227095,0.18419768292719038,2,1,0
1903,shape,shape,right,0,1,0.655811168207,right,0.77103589227095,0.18419768292719038,2,0,0
1903,shape,shape,right,0,1,0.727834583186,right,0.77103589227095,0.18419768292719038,2,0,0
1903,shape,shape,left,0,1,0.711844803953,left,0.77103589227095,0.18419768292719038,2,0,0
1903,shape,shape,right,0,1,0.615865865655,right,0.77103589227095,0.18419768292719038,2,0,0
1903,shape,shape,right,0,1,0.815836059092,right,0.77103589227095,0.18419768292719038,2,0,0
1903,shift,color,right,1,1,1.71980423818,right,1.1570830974020156,0.379750224282456,6.4,0,0
1903,shift,shape,right,1,1,2.0718356817,right,1.1570830974020156,0.379750224282456,6.4,0,0
1903,shift,color,left,1,1,0.991793039086,left,1.1570830974020156,0.379750224282456,6.4,0,0
1903,shift,color,right,0,1,1.07186152207,right,1.1570830974020156,0.379750224282456,6.4,0,0
1903,shift,shape,left,1,1,1.08779150789,left,1.1570830974020156,0.379750224282456,6.4,0,0
1903,shift,shape,right,0,1,0.815891645929,right,1.1570830974020156,0.379750224282456,6.4,0,0
1903,shift,shape,right,0,1,1.18383204242,right,1.1570830974020156,0.379750224282456,6.4,0,0
1903,shift,shape,right,0,1,0.967891900727,right,1.1570830974020156,0.379750224282456,6.4,0,0
1903,shift,color,left,1,1,0.855815014215,left,1.1570830974020156,0.379750224282456,6.4,0,0
1903,shift,color,left,0,1,0.711861329769,left,1.1570830974020156,0.379750224282456,6.4,0,0
1903,shift,shape,right,1,1,0.623806069842,right,1.1570830974020156,0.379750224282456,6.4,0,0
1903,shift,color,right,1,1,0.655841215146,right,1.1570830974020156,0.379750224282456,6.4,0,0
1903,shift,shape,right,1,1,1.08783687877,right,1.1570830974020156,0.379750224282456,6.4,0,0
1903,shift,color,right,1,1,0.663841513212,right,1.1570830974020156,0.379750224282456,6.4,0,0
1903,shift,color,right,0,1,0.927800570051,right,1.1570830974020156,0.379750224282456,6.4,0,0
1903,shift,shape,left,1,1,1.06379812543,left,1.1570830974020156,0.379750224282456,6.4,0,0
1903,shift,color,right,1,1,0.807835160087,right,1.1570830974020156,0.379750224282456,6.4,0,0
1903,shift,shape,right,1,1,1.03184651062,right,1.1570830974020156,0.379750224282456,6.4,0,0
1903,shift,shape,left,0,1,1.78382495134,left,1.1570830974020156,0.379750224282456,6.4,0,0
1903,shift,color,left,1,1,1.25588219917,left,1.1570830974020156,0.379750224282456,6.4,0,0
1903,shift,color,right,0,1,1.15175723515,right,1.1570830974020156,0.379750224282456,6.4,0,0
1903,shift,shape,left,1,1,1.43991369317,left,1.1570830974020156,0.379750224282456,6.4,0,0
1903,shift,color,left,1,1,1.76783487164,left,1.1570830974020156,0.379750224282456,6.4,0,0
1903,shift,color,left,0,1,1.16007753312,left,1.1570830974020156,0.379750224282456,6.4,0,0
1903,shift,color,left,0,1,0.847502828919,left,1.1570830974020156,0.379750224282456,6.4,0,0
1903,shift,color,left,0,1,0.991888287883,left,1.1570830974020156,0.379750224282456,6.4,0,0
1903,shift,shape,right,1,1,0.935847741342,right,1.1570830974020156,0.379750224282456,6.4,0,0
1903,shift,shape,right,0,1,0.791847784609,right,1.1570830974020156,0.379750224282456,6.4,0,0
1903,shift,shape,left,0,1,1.10383807584,left,1.1570830974020156,0.379750224282456,6.4,0,0
1903,shift,shape,right,0,1,1.35983709751,right,1.1570830974020156,0.379750224282456,6.4,0,0
1903,shift,color,right,1,1,1.81581352389,right,1.1570830974020156,0.379750224282456,6.4,0,0
1903,shift,color,left,0,1,1.20785276759,left,1.1570830974020156,0.379750224282456,6.4,0,0
1903,shift,shape,left,1,1,1.15980741114,left,1.1570830974020156,0.379750224282456,6.4,0,0
1903,shift,shape,right,0,1,1.10381463923,right,1.1570830974020156,0.379750224282456,6.4,0,0
1903,shift,color,left,1,1,0.799869115532,left,1.1570830974020156,0.379750224282456,6.4,0,0
1903,shift,shape,right,1,1,0.799746824489,right,1.1570830974020156,0.379750224282456,6.4,0,0
1903,shift,color,left,1,1,0.847919279498,left,1.1570830974020156,0.379750224282456,6.4,0,0
1903,shift,color,right,0,1,1.33584792162,right,1.1570830974020156,0.379750224282456,6.4,0,0
1903,shift,shape,left,1,1,1.22394500689,left,1.1570830974020156,0.379750224282456,6.4,0,0
1903,shift,color,left,1,1,1.01572482532,left,1.1570830974020156,0.379750224282456,6.4,0,0
1903,shift,color,right,0,1,1.83188022328,right,1.1570830974020156,0.379750224282456,6.4,0,0
1903,shift,color,right,0,1,1.43182325429,right,1.1570830974020156,0.379750224282456,6.4,0,0
1903,shift,color,right,0,1,2.53580519488,right,1.1570830974020156,0.379750224282456,6.4,1,0
1903,shift,shape,left,1,1,1.25580197384,left,1.1570830974020156,0.379750224282456,6.4,0,0
1903,shift,shape,right,0,1,1.23178305148,right,1.1570830974020156,0.379750224282456,6.4,0,0
1903,shift,color,left,1,1,0.967896708238,left,1.1570830974020156,0.379750224282456,6.4,0,0
1903,shift,color,left,0,1,0.84782913868,left,1.1570830974020156,0.379750224282456,6.4,0,0
1903,shift,shape,left,1,1,1.14386961311,left,1.1570830974020156,0.379750224282456,6.4,0,0
1903,shift,color,right,1,1,1.35179232998,right,1.1570830974020156,0.379750224282456,6.4,0,0
1903,shift,shape,left,1,1,0.975823691771,left,1.1570830974020156,0.379750224282456,6.4,0,0
1903,shift,color,right,1,1,0.967889496972,right,1.1570830974020156,0.379750224282456,6.4,0,0
1903,shift,shape,left,1,1,1.15977826561,left,1.1570830974020156,0.379750224282456,6.4,0,0
1903,shift,shape,left,0,1,0.863804194913,left,1.1570830974020156,0.379750224282456,6.4,0,0
1903,shift,color,right,1,1,1.55981029564,right,1.1570830974020156,0.379750224282456,6.4,0,0
1903,shift,shape,left,1,1,0.951883792861,left,1.1570830974020156,0.379750224282456,6.4,0,0
1903,shift,shape,right,0,1,1.19182062218,right,1.1570830974020156,0.379750224282456,6.4,0,0
1903,shift,shape,left,0,1,1.93583331881,left,1.1570830974020156,0.379750224282456,6.4,0,0
1903,shift,shape,left,0,1,1.22383834026,left,1.1570830974020156,0.379750224282456,6.4,0,0
1903,shift,color,right,1,1,0.799740214163,right,1.1570830974020156,0.379750224282456,6.4,0,0
1903,shift,color,left,0,1,1.09591860404,left,1.1570830974020156,0.379750224282456,6.4,0,0
1903,shift,shape,right,1,1,0.815805411213,right,1.1570830974020156,0.379750224282456,6.4,0,0
1903,shift,shape,right,0,1,0.999877769051,right,1.1570830974020156,0.379750224282456,6.4,0,0
1903,shift,color,left,1,1,0.839790981471,left,1.1570830974020156,0.379750224282456,6.4,0,0
1903,shift,shape,left,1,1,1.83184416696,left,1.1570830974020156,0.379750224282456,6.4,0,0
1912,shape,shape,right,0,1,0.854754958196,right,0.6685803512244,0.13916645566357058,2,0,0
1912,shape,shape,left,0,1,0.591818098233,left,0.6685803512244,0.13916645566357058,2,0,0
1912,shape,shape,right,0,1,0.671844515502,right,0.6685803512244,0.13916645566357058,2,0,0
1912,shape,shape,left,0,1,0.487797096624,left,0.6685803512244,0.13916645566357058,2,0,0
1912,shape,shape,right,0,1,0.711899789852,right,0.6685803512244,0.13916645566357058,2,0,0
1912,shape,shape,right,0,1,0.599810584094,right,0.6685803512244,0.13916645566357058,2,0,0
1912,shape,shape,left,0,1,0.607843032385,left,0.6685803512244,0.13916645566357058,2,0,0
1912,shape,shape,right,0,1,0.59182470856,right,0.6685803512244,0.13916645566357058,2,0,0
1912,shape,shape,left,0,1,0.607856853977,left,0.6685803512244,0.13916645566357058,2,0,0
1912,shape,shape,left,0,1,0.823843868892,left,0.6685803512244,0.13916645566357058,2,0,0
1912,shape,shape,left,0,1,0.703804843927,left,0.6685803512244,0.13916645566357058,2,0,0
1912,shape,shape,right,0,1,0.583877293107,right,0.6685803512244,0.13916645566357058,2,0,0
1912,shape,shape,left,0,1,0.503784472102,left,0.6685803512244,0.13916645566357058,2,0,0
1912,shape,shape,left,0,1,0.847884725518,left,0.6685803512244,0.13916645566357058,2,0,0
1912,shape,shape,right,0,1,0.695820771209,right,0.6685803512244,0.13916645566357058,2,0,0
1912,shape,shape,right,0,1,1.03982217019,right,0.6685803512244,0.13916645566357058,2,0,0
1912,shape,shape,right,0,1,0.615811480695,right,0.6685803512244,0.13916645566357058,2,0,0
1912,shape,shape,left,0,1,0.56780037775,left,0.6685803512244,0.13916645566357058,2,0,0
1912,shape,shape,right,0,1,0.751910294262,right,0.6685803512244,0.13916645566357058,2,0,0
1912,shape,shape,left,0,1,0.511797089413,left,0.6685803512244,0.13916645566357058,2,0,0
1912,color,color,right,0,1,0.879897936556,right,0.59383614081925,0.1667522672868314,2,0,0
1912,color,color,right,0,1,0.727787109022,right,0.59383614081925,0.1667522672868314,2,0,0
1912,color,color,left,0,1,0.671873961503,left,0.59383614081925,0.1667522672868314,2,0,0
1912,color,color,right,0,1,0.511855680945,right,0.59383614081925,0.1667522672868314,2,0,0
1912,color,color,left,0,1,0.639792243443,left,0.59383614081925,0.1667522672868314,2,0,0
1912,color,color,right,0,1,0.767913594617,right,0.59383614081925,0.1667522672868314,2,0,0
1912,color,color,right,0,1,0.503789580082,right,0.59383614081925,0.1667522672868314,2,0,0
1912,color,color,right,0,1,0.471795298615,right,0.59383614081925,0.1667522672868314,2,0,0
1912,color,color,left,0,1,0.527877309934,left,0.59383614081925,0.1667522672868314,2,0,0
1912,color,color,left,0,1,0.687879365144,left,0.59383614081925,0.1667522672868314,2,0,0
1912,color,color,left,0,1,0.40780282958,left,0.59383614081925,0.1667522672868314,2,0,0
1912,color,color,left,0,1,0.439834369252,left,0.59383614081925,0.1667522672868314,2,0,0
1912,color,color,right,0,1,0.287822095678,right,0.59383614081925,0.1667522672868314,2,0,0
1912,color,color,left,0,1,0.607815389201,left,0.59383614081925,0.1667522672868314,2,0,0
1912,color,color,right,0,1,0.37585031336,right,0.59383614081925,0.1667522672868314,2,0,0
1912,color,color,right,0,1,0.647798851366,right,0.59383614081925,0.1667522672868314,2,0,0
1912,color,color,left,0,1,0.863836044669,left,0.59383614081925,0.1667522672868314,2,0,0
1912,color,color,right,0,1,0.415847897586,right,0.59383614081925,0.1667522672868314,2,0,0
1912,color,color,left,0,1,0.783863711891,left,0.59383614081925,0.1667522672868314,2,0,0
1912,color,color,left,0,1,0.655789233941,left,0.59383614081925,0.1667522672868314,2,0,0
1912,shift,shape,right,1,1,0.655855938147,right,0.7768366201052032,0.29452436332629156,6.4,0,0
1912,shift,color,right,1,1,0.623870069823,right,0.7768366201052032,0.29452436332629156,6.4,0,0
1912,shift,shape,right,1,0,0.687801844041,left,0.7768366201052032,0.29452436332629156,6.4,0,0
1912,shift,color,right,1,1,0.791827953629,right,0.7768366201052032,0.29452436332629156,6.4,0,0
1912,shift,color,right,0,1,0.647907621286,right,0.7768366201052032,0.29452436332629156,6.4,0,0
1912,shift,shape,left,1,1,0.775813535906,left,0.7768366201052032,0.29452436332629156,6.4,0,0
1912,shift,shape,right,0,1,0.799852289246,right,0.7768366201052032,0.29452436332629156,6.4,0,0
1912,shift,color,right,1,1,0.895835734585,right,0.7768366201052032,0.29452436332629156,6.4,0,0
1912,shift,color,right,0,1,0.863803593975,right,0.7768366201052032,0.29452436332629156,6.4,0,0
1912,shift,color,right,0,1,0.511835549495,right,0.7768366201052032,0.29452436332629156,6.4,0,0
1912,shift,shape,right,1,1,1.26388039395,right,0.7768366201052032,0.29452436332629156,6.4,0,0
1912,shift,shape,left,0,1,0.935801168586,left,0.7768366201052032,0.29452436332629156,6.4,0,0
1912,shift,shape,right,0,1,0.631820489969,right,0.7768366201052032,0.29452436332629156,6.4,0,0
1912,shift,color,right,1,1,0.575851154674,right,0.7768366201052032,0.29452436332629156,6.4,0,0
1912,shift,color,left,0,1,0.407879449276,left,0.7768366201052032,0.29452436332629156,6.4,0,0
1912,shift,shape,left,1,1,1.2317848543,left,0.7768366201052032,0.29452436332629156,6.4,0,0
1912,shift,color,left,1,1,1.31984762596,left,0.7768366201052032,0.29452436332629156,6.4,0,0
1912,shift,shape,right,1,1,0.519908561154,right,0.7768366201052032,0.29452436332629156,6.4,0,0
1912,shift,shape,right,0,1,0.751789806035,right,0.7768366201052032,0.29452436332629156,6.4,0,0
1912,shift,shape,right,0,1,0.495843666977,right,0.7768366201052032,0.29452436332629156,6.4,0,0
1912,shift,shape,left,0,1,0.407836782622,left,0.7768366201052032,0.29452436332629156,6.4,0,0
1912,shift,color,right,1,1,0.479861099009,right,0.7768366201052032,0.29452436332629156,6.4,0,0
1912,shift,shape,left,1,1,0.975810170649,left,0.7768366201052032,0.29452436332629156,6.4,0,0
1912,shift,shape,right,0,1,1.04780053399,right,0.7768366201052032,0.29452436332629156,6.4,0,0
1912,shift,color,right,1,1,1.19177705411,right,0.7768366201052032,0.29452436332629156,6.4,0,0
1912,shift,color,left,0,1,0.91205206774,left,0.7768366201052032,0.29452436332629156,6.4,0,0
1912,shift,shape,left,1,1,1.2316601595,left,0.7768366201052032,0.29452436332629156,6.4,0,0
1912,shift,color,left,1,1,0.415935634649,left,0.7768366201052032,0.29452436332629156,6.4,0,0
1912,shift,color,left,0,1,0.50375592751,left,0.7768366201052032,0.29452436332629156,6.4,0,0
1912,shift,color,left,0,1,0.783852294054,left,0.7768366201052032,0.29452436332629156,6.4,0,0
1912,shift,shape,right,1,1,0.727834282716,right,0.7768366201052032,0.29452436332629156,6.4,0,0
1912,shift,shape,left,0,1,0.527821422626,left,0.7768366201052032,0.29452436332629156,6.4,0,0
1912,shift,shape,left,0,0,1.13586510847,right,0.7768366201052032,0.29452436332629156,6.4,0,0
1912,shift,color,left,1,1,0.823821634157,left,0.7768366201052032,0.29452436332629156,6.4,0,0
1912,shift,color,left,0,1,0.503817824205,left,0.7768366201052032,0.29452436332629156,6.4,0,0
1912,shift,color,left,0,1,1.15183505673,left,0.7768366201052032,0.29452436332629156,6.4,0,0
1912,shift,shape,right,1,1,0.599876687361,right,0.7768366201052032,0.29452436332629156,6.4,0,0
1912,shift,shape,right,0,1,0.631802762275,right,0.7768366201052032,0.29452436332629156,6.4,0,0
1912,shift,color,right,1,1,0.599901626321,right,0.7768366201052032,0.29452436332629156,6.4,0,0
1912,shift,shape,right,1,1,0.679757977913,right,0.7768366201052032,0.29452436332629156,6.4,0,0
1912,shift,color,right,1,1,0.807826446475,right,0.7768366201052032,0.29452436332629156,6.4,0,0
1912,shift,color,left,0,1,1.75188475436,left,0.7768366201052032,0.29452436332629156,6.4,1,0
1912,shift,color,right,0,1,1.12779149587,right,0.7768366201052032,0.29452436332629156,6.4,0,0
1912,shift,color,right,0,1,0.671843614094,right,0.7768366201052032,0.29452436332629156,6.4,0,0
1912,shift,shape,left,1,1,1.11180772603,left,0.7768366201052032,0.29452436332629156,6.4,0,0
1912,shift,shape,right,0,1,1.247833826,right,0.7768366201052032,0.29452436332629156,6.4,0,0
1912,shift,color,left,1,1,0.439873730742,left,0.7768366201052032,0.29452436332629156,6.4,0,0
1912,shift,shape,left,1,1,1.20784465492,left,0.7768366201052032,0.29452436332629156,6.4,0,0
1912,shift,shape,left,0,1,0.50376103549,left,0.7768366201052032,0.29452436332629156,6.4,0,0
1912,shift,color,right,1,1,0.439891758906,right,0.7768366201052032,0.29452436332629156,6.4,0,0
1912,shift,shape,left,1,1,0.511811211475,left,0.7768366201052032,0.29452436332629156,6.4,0,0
1912,shift,shape,right,0,1,0.575839436367,right,0.7768366201052032,0.29452436332629156,6.4,0,0
1912,shift,color,left,1,1,0.383872245221,left,0.7768366201052032,0.29452436332629156,6.4,0,0
1912,shift,color,left,0,1,0.487829847788,left,0.7768366201052032,0.29452436332629156,6.4,0,0
1912,shift,shape,left,1,1,0.663839710396,left,0.7768366201052032,0.29452436332629156,6.4,0,0
1912,shift,color,left,1,1,0.447849089848,left,0.7768366201052032,0.29452436332629156,6.4,0,0
1912,shift,shape,left,1,1,0.735797923516,left,0.7768366201052032,0.29452436332629156,6.4,0,0
1912,shift,color,right,1,1,0.735792515067,right,0.7768366201052032,0.29452436332629156,6.4,0,0
1912,shift,shape,left,1,1,0.839903957963,left,0.7768366201052032,0.29452436332629156,6.4,0,0
1912,shift,shape,left,0,1,0.53581781459,left,0.7768366201052032,0.29452436332629156,6.4,0,0
1912,shift,color,left,1,1,0.551802185374,left,0.7768366201052032,0.29452436332629156,6.4,0,0
1912,shift,shape,right,1,1,1.04783719126,right,0.7768366201052032,0.29452436332629156,6.4,0,0
1912,shift,color,left,1,1,1.03983959742,left,0.7768366201052032,0.29452436332629156,6.4,0,0
1912,shift,color,right,0,1,1.12786450994,right,0.7768366201052032,0.29452436332629156,6.4,0,0
1917,color,color,left,0,1,0.417193935207,left,0.387488172777,0.1056749247075379,2,0,0
1917,color,color,right,0,1,0.399822302454,right,0.387488172777,0.1056749247075379,2,0,0
1917,color,color,right,0,1,0.391845443398,right,0.387488172777,0.1056749247075379,2,0,0
1917,color,color,right,0,1,0.431799447557,right,0.387488172777,0.1056749247075379,2,0,0
1917,color,color,left,0,1,0.279783614027,left,0.387488172777,0.1056749247075379,2,0,0
1917,color,color,right,0,1,0.687920683315,right,0.387488172777,0.1056749247075379,2,0,0
1917,color,color,right,0,1,0.495768460759,right,0.387488172777,0.1056749247075379,2,0,0
1917,color,color,left,0,1,0.287867139685,left,0.387488172777,0.1056749247075379,2,0,0
1917,color,color,left,0,1,0.303824763899,left,0.387488172777,0.1056749247075379,2,0,0
1917,color,color,right,0,1,0.2958316795,right,0.387488172777,0.1056749247075379,2,0,0
1917,color,color,right,0,1,0.551786755734,right,0.387488172777,0.1056749247075379,2,0,0
1917,color,color,left,0,1,0.303770979893,left,0.387488172777,0.1056749247075379,2,0,0
1917,color,color,right,0,1,0.319826857569,right,0.387488172777,0.1056749247075379,2,0,0
1917,color,color,left,0,1,0.271731036706,left,0.387488172777,0.1056749247075379,2,0,0
1917,color,color,left,0,1,0.431909419322,left,0.387488172777,0.1056749247075379,2,0,0
1917,color,color,left,0,1,0.311743632379,left,0.387488172777,0.1056749247075379,2,0,0
1917,color,color,right,0,1,0.383859570263,right,0.387488172777,0.1056749247075379,2,0,0
1917,color,color,left,0,1,0.319862312947,left,0.387488172777,0.1056749247075379,2,0,0
1917,color,color,right,0,1,0.463779897822,right,0.387488172777,0.1056749247075379,2,0,0
1917,color,color,left,0,1,0.399835523104,left,0.387488172777,0.1056749247075379,2,0,0
1917,shape,shape,left,0,1,0.615876257126,left,0.5998241202937,0.19773800796417518,2,0,0
1917,shape,shape,right,0,1,0.495762150903,right,0.5998241202937,0.19773800796417518,2,0,0
1917,shape,shape,right,0,1,0.423825292725,right,0.5998241202937,0.19773800796417518,2,0,0
1917,shape,shape,left,0,1,0.679869007403,left,0.5998241202937,0.19773800796417518,2,0,0
1917,shape,shape,right,0,1,0.567849243734,right,0.5998241202937,0.19773800796417518,2,0,0
1917,shape,shape,right,0,1,0.487733611127,right,0.5998241202937,0.19773800796417518,2,0,0
1917,shape,shape,right,0,1,0.5278069016,right,0.5998241202937,0.19773800796417518,2,0,0
1917,shape,shape,right,0,1,0.43987696383,right,0.5998241202937,0.19773800796417518,2,0,0
1917,shape,shape,right,0,1,0.567796361136,right,0.5998241202937,0.19773800796417518,2,0,0
1917,shape,shape,left,0,1,0.423812072075,left,0.5998241202937,0.19773800796417518,2,0,0
1917,shape,shape,left,0,1,0.567830614637,left,0.5998241202937,0.19773800796417518,2,0,0
1917,shape,shape,left,0,1,0.519817122363,left,0.5998241202937,0.19773800796417518,2,0,0
1917,shape,shape,right,0,1,0.895822004389,right,0.5998241202937,0.19773800796417518,2,0,0
1917,shape,shape,right,0,1,0.575879285857,right,0.5998241202937,0.19773800796417518,2,0,0
1917,shape,shape,left,0,1,0.607752468581,left,0.5998241202937,0.19773800796417518,2,0,0
1917,shape,shape,left,0,1,0.583813177802,left,0.5998241202937,0.19773800796417518,2,0,0
1917,shape,shape,left,0,1,0.775878264261,left,0.5998241202937,0.19773800796417518,2,0,0
1917,shape,shape,left,0,1,0.479872132283,left,0.5998241202937,0.19773800796417518,2,0,0
1917,shape,shape,right,0,1,1.27979262811,right,0.5998241202937,0.19773800796417518,2,1,0
1917,shape,shape,left,0,1,0.479816845932,left,0.5998241202937,0.19773800796417518,2,0,0
1917,shift,color,left,1,1,0.391820804915,left,0.8475717329145781,0.616925908578011,6.4,0,0
1917,shift,color,left,0,0,2.95183218669,right,0.8475717329145781,0.616925908578011,6.4,1,0
1917,shift,shape,left,1,1,0.831904371438,left,0.8475717329145781,0.616925908578011,6.4,0,0
1917,shift,shape,left,0,1,0.631756360259,left,0.8475717329145781,0.616925908578011,6.4,0,0
1917,shift,shape,left,0,1,0.607783717388,left,0.8475717329145781,0.616925908578011,6.4,0,0
1917,shift,shape,left,0,1,0.447936451944,left,0.8475717329145781,0.616925908578011,6.4,0,0
1917,shift,color,left,1,1,0.791651400322,left,0.8475717329145781,0.616925908578011,6.4,0,0
1917,shift,color,left,0,1,0.471893169942,left,0.8475717329145781,0.616925908578011,6.4,0,0
1917,shift,shape,left,1,1,0.791736733604,left,0.8475717329145781,0.616925908578011,6.4,0,0
1917,shift,shape,left,0,1,0.495869117975,left,0.8475717329145781,0.616925908578011,6.4,0,0
1917,shift,color,right,1,1,0.703758119807,right,0.8475717329145781,0.616925908578011,6.4,0,0
1917,shift,shape,left,1,1,1.4958679161,left,0.8475717329145781,0.616925908578011,6.4,0,0
1917,shift,color,right,1,1,0.503748925447,right,0.8475717329145781,0.616925908578011,6.4,0,0
1917,shift,shape,right,1,1,0.447925635049,right,0.8475717329145781,0.616925908578011,6.4,0,0
1917,shift,color,right,1,1,0.359731284293,right,0.8475717329145781,0.616925908578011,6.4,0,0
1917,shift,color,left,0,1,0.783915517647,left,0.8475717329145781,0.616925908578011,6.4,0,0
1917,shift,shape,right,1,1,1.0957720063,right,0.8475717329145781,0.616925908578011,6.4,0,0
1917,shift,shape,right,0,1,1.0318606832,right,0.8475717329145781,0.616925908578011,6.4,0,0
1917,shift,shape,left,0,1,0.623838393186,left,0.8475717329145781,0.616925908578011,6.4,0,0
1917,shift,shape,left,0,1,0.479809935138,left,0.8475717329145781,0.616925908578011,6.4,0,0
1917,shift,color,left,1,0,2.19184406124,right,0.8475717329145781,0.616925908578011,6.4,0,0
1917,shift,color,right,0,1,0.935786524973,right,0.8475717329145781,0.616925908578011,6.4,0,0
1917,shift,shape,right,1,1,0.519869404022,right,0.8475717329145781,0.616925908578011,6.4,0,0
1917,shift,color,left,1,1,0.471859817849,left,0.8475717329145781,0.616925908578011,6.4,0,0
1917,shift,color,right,0,1,1.15973801481,right,0.8475717329145781,0.616925908578011,6.4,0,0
1917,shift,shape,left,1,1,0.879893525698,left,0.8475717329145781,0.616925908578011,6.4,0,0
1917,shift,shape,left,0,1,1.15175424496,left,0.8475717329145781,0.616925908578011,6.4,0,0
1917,shift,color,right,1,1,0.391848147622,right,0.8475717329145781,0.616925908578011,6.4,0,0
1917,shift,color,left,0,1,0.871763126828,left,0.8475717329145781,0.616925908578011,6.4,0,0
1917,shift,color,right,0,1,0.39986707238,right,0.8475717329145781,0.616925908578011,6.4,0,0
1917,shift,shape,left,1,1,0.455829179596,left,0.8475717329145781,0.616925908578011,6.4,0,0
1917,shift,color,right,1,1,0.711808293373,right,0.8475717329145781,0.616925908578011,6.4,0,0
1917,shift,color,left,0,1,0.591839614294,left,0.8475717329145781,0.616925908578011,6.4,0,0
1917,shift,shape,right,1,1,0.575819792935,right,0.8475717329145781,0.616925908578011,6.4,0,0
1917,shift,shape,right,0,1,1.43174476214,right,0.8475717329145781,0.616925908578011,6.4,0,0
1917,shift,color,right,1,1,0.8318430757,right,0.8475717329145781,0.616925908578011,6.4,0,0
1917,shift,color,right,0,0,0.871813605671,left,0.8475717329145781,0.616925908578011,6.4,0,0
1917,shift,color,left,0,1,0.503830352628,left,0.8475717329145781,0.616925908578011,6.4,0,0
1917,shift,shape,right,1,1,1.18384076088,right,0.8475717329145781,0.616925908578011,6.4,0,0
1917,shift,color,right,1,1,1.07987267313,right,0.8475717329145781,0.616925908578011,6.4,0,0
1917,shift,shape,left,1,1,0.975760360106,left,0.8475717329145781,0.616925908578011,6.4,0,0
1917,shift,color,left,1,1,0.335905270442,left,0.8475717329145781,0.616925908578011,6.4,0,0
1917,shift,shape,right,1,1,0.49583276119,right,0.8475717329145781,0.616925908578011,6.4,0,0
1917,shift,color,right,1,1,0.431861945172,right,0.8475717329145781,0.616925908578011,6.4,0,0
1917,shift,color,left,0,1,0.319726200352,left,0.8475717329145781,0.616925908578011,6.4,0,0
1917,shift,shape,right,1,1,0.791916714717,right,0.8475717329145781,0.616925908578011,6.4,0,0
1917,shift,shape,right,0,1,0.615762980199,right,0.8475717329145781,0.616925908578011,6.4,0,0
1917,shift,color,left,1,1,0.471916606548,left,0.8475717329145781,0.616925908578011,6.4,0,0
1917,shift,shape,left,1,1,0.703813406159,left,0.8475717329145781,0.616925908578011,6.4,0,0
1917,shift,color,left,1,1,2.99976665554,left,0.8475717329145781,0.616925908578011,6.4,1,0
1917,shift,color,right,0,1,1.34379799809,right,0.8475717329145781,0.616925908578011,6.4,0,0
1917,shift,color,right,0,1,0.607739548401,right,0.8475717329145781,0.616925908578011,6.4,0,0
1917,shift,color,left,0,1,1.35985567858,left,0.8475717329145781,0.616925908578011,6.4,0,0
1917,shift,shape,right,1,1,0.91972133275,right,0.8475717329145781,0.616925908578011,6.4,0,0
1917,shift,shape,right,0,1,0.935860139953,right,0.8475717329145781,0.616925908578011,6.4,0,0
1917,shift,color,right,1,1,0.855809709185,right,0.8475717329145781,0.616925908578011,6.4,0,0
1917,shift,color,left,0,1,0.335779974743,left,0.8475717329145781,0.616925908578011,6.4,0,0
1917,shift,shape,right,1,1,0.559863971537,right,0.8475717329145781,0.616925908578011,6.4,0,0
1917,shift,shape,right,0,1,0.41583070598,right,0.8475717329145781,0.616925908578011,6.4,0,0
1917,shift,color,right,1,1,0.447885672632,right,0.8475717329145781,0.616925908578011,6.4,0,0
1917,shift,shape,left,1,0,0.607793332406,right,0.8475717329145781,0.616925908578011,6.4,0,0
1917,shift,shape,left,0,1,3.44785502476,left,0.8475717329145781,0.616925908578011,6.4,1,0
1917,shift,shape,right,0,1,0.543854065665,right,0.8475717329145781,0.616925908578011,6.4,0,0
1917,shift,shape,right,0,1,0.567802070053,right,0.8475717329145781,0.616925908578011,6.4,0,0
1928,shape,shape,left,0,1,0.561699755869,left,0.589915402817,0.15118887255408278,2,0,0
1928,shape,shape,right,0,1,0.83986058216,right,0.589915402817,0.15118887255408278,2,0,0
1928,shape,shape,right,0,1,0.527836244131,right,0.589915402817,0.15118887255408278,2,0,0
1928,shape,shape,right,0,1,0.575835342723,right,0.589915402817,0.15118887255408278,2,0,0
1928,shape,shape,left,0,1,0.583839549296,left,0.589915402817,0.15118887255408278,2,0,0
1928,shape,shape,right,0,1,0.447834441315,right,0.589915402817,0.15118887255408278,2,0,0
1928,shape,shape,left,0,1,0.423830234742,left,0.589915402817,0.15118887255408278,2,0,0
1928,shape,shape,left,0,1,0.495834441315,left,0.589915402817,0.15118887255408278,2,0,0
1928,shape,shape,left,0,1,0.455893934272,left,0.589915402817,0.15118887255408278,2,0,0
1928,shape,shape,right,0,1,0.991723868545,right,0.589915402817,0.15118887255408278,2,0,0
1928,shape,shape,right,0,1,0.535859981221,right,0.589915402817,0.15118887255408278,2,0,0
1928,shape,shape,left,0,1,0.431920676056,left,0.589915402817,0.15118887255408278,2,0,0
1928,shape,shape,left,0,1,0.55964484507,left,0.589915402817,0.15118887255408278,2,0,0
1928,shape,shape,right,0,1,0.679820619718,right,0.589915402817,0.15118887255408278,2,0,0
1928,shape,shape,right,0,1,0.856009915493,right,0.589915402817,0.15118887255408278,2,0,0
1928,shape,shape,left,0,1,0.64765656338,left,0.589915402817,0.15118887255408278,2,0,0
1928,shape,shape,right,0,1,0.591841352113,right,0.589915402817,0.15118887255408278,2,0,0
1928,shape,shape,left,0,1,0.503979267606,left,0.589915402817,0.15118887255408278,2,0,0
1928,shape,shape,left,0,1,0.479561314554,left,0.589915402817,0.15118887255408278,2,0,0
1928,shape,shape,right,0,1,0.607825126761,right,0.589915402817,0.15118887255408278,2,0,0
1928,color,color,left,0,0,0.551953727699,right,0.66783541784025,0.6139597672074312,2,0,0
1928,color,color,right,0,1,0.647734384977,right,0.66783541784025,0.6139597672074312,2,0,0
1928,color,color,right,0,1,0.567834140845,right,0.66783541784025,0.6139597672074312,2,0,0
1928,color,color,left,0,1,0.551852469484,left,0.66783541784025,0.6139597672074312,2,0,0
1928,color,color,right,0,1,0.575787568075,right,0.66783541784025,0.6139597672074312,2,0,0
1928,color,color,left,0,1,0.559910159624,left,0.66783541784025,0.6139597672074312,2,0,0
1928,color,color,left,0,1,0.503939305164,left,0.66783541784025,0.6139597672074312,2,0,0
1928,color,color,right,0,1,0.399650253521,right,0.66783541784025,0.6139597672074312,2,0,0
1928,color,color,right,0,1,0.519939605634,right,0.66783541784025,0.6139597672074312,2,0,0
1928,color,color,right,0,1,0.455770140845,right,0.66783541784025,0.6139597672074312,2,0,0
1928,color,color,left,0,1,3.26389423474,left,0.66783541784025,0.6139597672074312,2,1,0
1928,color,color,right,0,1,0.551874403756,right,0.66783541784025,0.6139597672074312,2,0,0
1928,color,color,right,0,1,0.647737690141,right,0.66783541784025,0.6139597672074312,2,0,0
1928,color,color,left,0,1,0.551797183099,left,0.66783541784025,0.6139597672074312,2,0,0
1928,color,color,left,0,1,0.519846460094,left,0.66783541784025,0.6139597672074312,2,0,0
1928,color,color,left,0,1,0.551806798122,left,0.66783541784025,0.6139597672074312,2,0,0
1928,color,color,left,0,1,0.487792075117,left,0.66783541784025,0.6139597672074312,2,0,0
1928,color,color,right,0,1,0.511813107981,right,0.66783541784025,0.6139597672074312,2,0,0
1928,color,color,left,0,1,0.471894535211,left,0.66783541784025,0.6139597672074312,2,0,0
1928,color,color,right,0,1,0.463880112676,right,0.66783541784025,0.6139597672074312,2,0,0
1928,shift,shape,left,1,1,0.543740995305,left,0.7965754835681094,0.2923886083085535,6.4,0,0
1928,shift,shape,left,0,1,0.823884920188,left,0.7965754835681094,0.2923886083085535,6.4,0,0
1928,shift,shape,right,0,1,0.583792976526,right,0.7965754835681094,0.2923886083085535,6.4,0,0
1928,shift,color,right,1,1,1.1198650892,right,0.7965754835681094,0.2923886083085535,6.4,0,0
1928,shift,color,right,0,1,0.583779755869,right,0.7965754835681094,0.2923886083085535,6.4,0,0
1928,shift,color,left,0,1,0.423843755869,left,0.7965754835681094,0.2923886083085535,6.4,0,0
1928,shift,shape,right,1,1,0.503861483568,right,0.7965754835681094,0.2923886083085535,6.4,0,0
1928,shift,color,left,1,1,0.495842253521,left,0.7965754835681094,0.2923886083085535,6.4,0,0
1928,shift,shape,left,1,1,0.447795680751,left,0.7965754835681094,0.2923886083085535,6.4,0,0
1928,shift,shape,right,0,1,0.559864788732,right,0.7965754835681094,0.2923886083085535,6.4,0,0
1928,shift,color,right,1,0,0.487838948357,left,0.7965754835681094,0.2923886083085535,6.4,0,0
1928,shift,shape,left,1,1,0.671789971831,left,0.7965754835681094,0.2923886083085535,6.4,0,0
1928,shift,color,left,1,1,1.05586358685,left,0.7965754835681094,0.2923886083085535,6.4,0,0
1928,shift,color,right,0,1,0.807828131455,right,0.7965754835681094,0.2923886083085535,6.4,0,0
1928,shift,shape,left,1,1,0.519845859155,left,0.7965754835681094,0.2923886083085535,6.4,0,0
1928,shift,color,right,1,1,0.879638234742,right,0.7965754835681094,0.2923886083085535,6.4,0,0
1928,shift,color,left,0,1,0.695842553991,left,0.7965754835681094,0.2923886083085535,6.4,0,0
1928,shift,color,right,0,1,0.463931192488,right,0.7965754835681094,0.2923886083085535,6.4,0,0
1928,shift,color,right,0,1,0.879587455399,right,0.7965754835681094,0.2923886083085535,6.4,0,0
1928,shift,shape,left,1,1,0.535833239437,left,0.7965754835681094,0.2923886083085535,6.4,0,0
1928,shift,shape,left,0,1,0.599842253521,left,0.7965754835681094,0.2923886083085535,6.4,0,0
1928,shift,shape,right,0,1,1.36789123005,right,0.7965754835681094,0.2923886083085535,6.4,0,0
1928,shift,color,left,1,1,0.527823023474,left,0.7965754835681094,0.2923886083085535,6.4,0,0
1928,shift,color,left,0,1,1.32783474178,left,0.7965754835681094,0.2923886083085535,6.4,0,0
1928,shift,color,left,0,1,0.75981941784,left,0.7965754835681094,0.2923886083085535,6.4,0,0
1928,shift,color,right,0,1,1.35989153052,right,0.7965754835681094,0.2923886083085535,6.4,0,0
1928,shift,shape,left,1,1,1.3277085446,left,0.7965754835681094,0.2923886083085535,6.4,0,0
1928,shift,shape,left,0,1,0.559830835681,left,0.7965754835681094,0.2923886083085535,6.4,0,0
1928,shift,color,right,1,1,1.20783504225,right,0.7965754835681094,0.2923886083085535,6.4,0,0
1928,shift,color,right,0,1,1.15184165258,right,0.7965754835681094,0.2923886083085535,6.4,0,0
1928,shift,color,left,0,1,0.511862384977,left,0.7965754835681094,0.2923886083085535,6.4,0,0
1928,shift,color,left,0,1,0.415851267606,left,0.7965754835681094,0.2923886083085535,6.4,0,0
1928,shift,shape,right,1,1,0.495844957747,right,0.7965754835681094,0.2923886083085535,6.4,0,0
1928,shift,color,left,1,1,0.455720262911,left,0.7965754835681094,0.2923886083085535,6.4,0,0
1928,shift,shape,right,1,1,1.11193059155,right,0.7965754835681094,0.2923886083085535,6.4,0,0
1928,shift,shape,right,0,1,0.855718460094,right,0.7965754835681094,0.2923886083085535,6.4,0,0
1928,shift,color,left,1,1,0.599856976526,left,0.7965754835681094,0.2923886083085535,6.4,0,0
1928,shift,color,left,0,1,1.28788642254,left,0.7965754835681094,0.2923886083085535,6.4,0,0
1928,shift,shape,left,1,1,0.47974970892,left,0.7965754835681094,0.2923886083085535,6.4,0,0
1928,shift,color,left,1,1,0.463808300469,left,0.7965754835681094,0.2923886083085535,6.4,0,0
1928,shift,shape,right,1,1,0.583868394366,right,0.7965754835681094,0.2923886083085535,6.4,0,0
1928,shift,color,right,1,1,1.25589994366,right,0.7965754835681094,0.2923886083085535,6.4,0,0
1928,shift,shape,right,1,1,1.00784105164,right,0.7965754835681094,0.2923886083085535,6.4,0,0
1928,shift,color,right,1,1,0.607815812207,right,0.7965754835681094,0.2923886083085535,6.4,0,0
1928,shift,shape,left,1,1,0.679881615023,left,0.7965754835681094,0.2923886083085535,6.4,0,0
1928,shift,shape,left,0,1,0.599741596244,left,0.7965754835681094,0.2923886083085535,6.4,0,0
1928,shift,color,right,1,1,0.695921877934,right,0.7965754835681094,0.2923886083085535,6.4,0,0
1928,shift,shape,right,1,1,0.583758723005,right,0.7965754835681094,0.2923886083085535,6.4,0,0
1928,shift,shape,right,0,1,0.543865690141,right,0.7965754835681094,0.2923886083085535,6.4,0,0
1928,shift,color,right,1,1,1.27189633803,right,0.7965754835681094,0.2923886083085535,6.4,0,0
1928,shift,shape,left,1,1,1.0716869108,left,0.7965754835681094,0.2923886083085535,6.4,0,0
1928,shift,shape,right,0,1,0.911814610329,right,0.7965754835681094,0.2923886083085535,6.4,0,0
1928,shift,color,left,1,1,1.14384525822,left,0.7965754835681094,0.2923886083085535,6.4,0,0
1928,shift,color,right,0,1,1.16791286385,right,0.7965754835681094,0.2923886083085535,6.4,0,0
1928,shift,color,right,0,1,1.13578696714,right,0.7965754835681094,0.2923886083085535,6.4,0,0
1928,shift,shape,right,1,1,0.951916169014,right,0.7965754835681094,0.2923886083085535,6.4,0,0
1928,shift,shape,right,0,1,0.80778456338,right,0.7965754835681094,0.2923886083085535,6.4,0,0
1928,shift,shape,left,0,1,0.695801690141,left,0.7965754835681094,0.2923886083085535,6.4,0,0
1928,shift,color,left,1,1,0.879858178404,left,0.7965754835681094,0.2923886083085535,6.4,0,0
1928,shift,shape,right,1,1,1.02381461033,right,0.7965754835681094,0.2923886083085535,6.4,0,0
1928,shift,color,left,1,1,0.687913464789,left,0.7965754835681094,0.2923886083085535,6.4,0,0
1928,shift,shape,left,1,1,1.20764304225,left,0.7965754835681094,0.2923886083085535,6.4,0,0
1928,shift,shape,right,0,1,0.711851868545,right,0.7965754835681094,0.2923886083085535,6.4,0,0
1928,shift,shape,left,0,1,0.799891230047,left,0.7965754835681094,0.2923886083085535,6.4,0,0
1966,color,color,right,0,1,0.703462302577,right,0.46820638424195,0.09505530126556994,2,0,0
1966,color,color,left,0,1,0.431787381029,left,0.46820638424195,0.09505530126556994,2,0,0
1966,color,color,right,0,1,0.327759656167,right,0.46820638424195,0.09505530126556994,2,0,0
1966,color,color,right,0,1,0.519933223802,right,0.46820638424195,0.09505530126556994,2,0,0
1966,color,color,right,0,1,0.431813822288,right,0.46820638424195,0.09505530126556994,2,0,0
1966,color,color,left,0,1,0.423836975216,left,0.46820638424195,0.09505530126556994,2,0,0
1966,color,color,left,0,1,0.575821031137,left,0.46820638424195,0.09505530126556994,2,0,0
1966,color,color,right,0,1,0.399841532728,right,0.46820638424195,0.09505530126556994,2,0,0
1966,color,color,left,0,1,0.439841148128,left,0.46820638424195,0.09505530126556994,2,0,0
1966,color,color,right,0,1,0.503821182573,right,0.46820638424195,0.09505530126556994,2,0,0
1966,color,color,left,0,1,0.43182373776,left,0.46820638424195,0.09505530126556994,2,0,0
1966,color,color,left,0,1,0.375821151325,left,0.46820638424195,0.09505530126556994,2,0,0
1966,color,color,left,0,1,0.4318474748,left,0.46820638424195,0.09505530126556994,2,0,0
1966,color,color,left,0,1,0.41580364,left,0.46820638424195,0.09505530126556994,2,0,0
1966,color,color,right,0,1,0.671809411406,right,0.46820638424195,0.09505530126556994,2,0,0
1966,color,color,left,0,1,0.551807860986,left,0.46820638424195,0.09505530126556994,2,0,0
1966,color,color,left,0,1,0.391894131603,left,0.46820638424195,0.09505530126556994,2,0,0
1966,color,color,right,0,1,0.471724799377,right,0.46820638424195,0.09505530126556994,2,0,0
1966,color,color,right,0,1,0.439901241898,right,0.46820638424195,0.09505530126556994,2,0,0
1966,color,color,right,0,1,0.423775980039,right,0.46820638424195,0.09505530126556994,2,0,0
1966,shape,shape,left,0,1,0.559876351058,left,0.53423229607465,0.1485016201888229,2,0,0
1966,shape,shape,left,0,1,0.775859370962,left,0.53423229607465,0.1485016201888229,2,0,0
1966,shape,shape,left,0,1,0.471816742846,left,0.53423229607465,0.1485016201888229,2,0,0
1966,shape,shape,right,0,1,0.735869070097,right,0.53423229607465,0.1485016201888229,2,0,0
1966,shape,shape,left,0,1,0.383825341062,left,0.53423229607465,0.1485016201888229,2,0,0
1966,shape,shape,right,0,1,0.631810396943,right,0.53423229607465,0.1485016201888229,2,0,0
1966,shape,shape,left,0,1,0.551835804589,left,0.53423229607465,0.1485016201888229,2,0,0
1966,shape,shape,left,0,1,0.455854034636,left,0.53423229607465,0.1485016201888229,2,0,0
1966,shape,shape,right,0,1,0.495859959881,right,0.53423229607465,0.1485016201888229,2,0,0
1966,shape,shape,right,0,1,0.527766146295,right,0.53423229607465,0.1485016201888229,2,0,0
1966,shape,shape,left,0,1,0.479840763527,left,0.53423229607465,0.1485016201888229,2,0,0
1966,shape,shape,right,0,1,0.471855503327,right,0.53423229607465,0.1485016201888229,2,0,0
1966,shape,shape,left,0,1,0.407766398688,left,0.53423229607465,0.1485016201888229,2,0,0
1966,shape,shape,left,0,1,0.431887437157,left,0.53423229607465,0.1485016201888229,2,0,0
1966,shape,shape,right,0,1,0.351831117275,right,0.53423229607465,0.1485016201888229,2,0,0
1966,shape,shape,right,0,1,0.383851782321,right,0.53423229607465,0.1485016201888229,2,0,0
1966,shape,shape,right,0,1,0.511783607141,right,0.53423229607465,0.1485016201888229,2,0,0
1966,shape,shape,right,0,1,0.463811651701,right,0.53423229607465,0.1485016201888229,2,0,0
1966,shape,shape,left,0,0,0.64788127394,right,0.53423229607465,0.1485016201888229,2,0,0
1966,shape,shape,right,0,1,0.943763168047,right,0.53423229607465,0.1485016201888229,2,0,0
1966,shift,color,right,1,1,0.943894773404,right,0.6362041905189375,0.20591211990261465,6.4,0,0
1966,shift,color,right,0,1,0.431790986656,right,0.6362041905189375,0.20591211990261465,6.4,0,0
1966,shift,color,right,0,1,0.647866851435,right,0.6362041905189375,0.20591211990261465,6.4,0,0
1966,shift,shape,left,1,1,1.05578156155,left,0.6362041905189375,0.20591211990261465,6.4,0,0
1966,shift,shape,right,0,1,0.783781833173,right,0.6362041905189375,0.20591211990261465,6.4,0,0
1966,shift,shape,right,0,1,0.695773304665,right,0.6362041905189375,0.20591211990261465,6.4,0,0
1966,shift,shape,left,0,1,1.00786308956,left,0.6362041905189375,0.20591211990261465,6.4,0,0
1966,shift,color,right,1,1,0.463842599993,right,0.6362041905189375,0.20591211990261465,6.4,0,0
1966,shift,color,right,0,1,0.767812214179,right,0.6362041905189375,0.20591211990261465,6.4,0,0
1966,shift,color,right,0,1,0.487865685616,right,0.6362041905189375,0.20591211990261465,6.4,0,0
1966,shift,shape,left,1,1,0.615818242786,left,0.6362041905189375,0.20591211990261465,6.4,0,0
1966,shift,color,left,1,1,0.639794154799,left,0.6362041905189375,0.20591211990261465,6.4,0,0
1966,shift,shape,left,1,1,0.591896715635,left,0.6362041905189375,0.20591211990261465,6.4,0,0
1966,shift,shape,right,0,1,0.751803834704,right,0.6362041905189375,0.20591211990261465,6.4,0,0
1966,shift,color,left,1,1,0.935861738657,left,0.6362041905189375,0.20591211990261465,6.4,0,0
1966,shift,color,left,0,1,0.767751519471,left,0.6362041905189375,0.20591211990261465,6.4,0,0
1966,shift,shape,right,1,1,0.879941180218,right,0.6362041905189375,0.20591211990261465,6.4,0,0
1966,shift,color,left,1,1,0.455747067724,left,0.6362041905189375,0.20591211990261465,6.4,0,0
1966,shift,color,left,0,1,0.487823319508,left,0.6362041905189375,0.20591211990261465,6.4,0,0
1966,shift,shape,left,1,0,0.53585206356,right,0.6362041905189375,0.20591211990261465,6.4,0,0
1966,shift,shape,right,0,1,0.751851308782,right,0.6362041905189375,0.20591211990261465,6.4,0,0
1966,shift,shape,right,0,1,0.823859870943,right,0.6362041905189375,0.20591211990261465,6.4,0,0
1966,shift,shape,left,0,1,0.399803673652,left,0.6362041905189375,0.20591211990261465,6.4,0,0
1966,shift,color,left,1,1,0.439809298429,left,0.6362041905189375,0.20591211990261465,6.4,0,0
1966,shift,color,left,0,1,0.383824139187,left,0.6362041905189375,0.20591211990261465,6.4,0,0
1966,shift,shape,right,1,1,0.511835888721,right,0.6362041905189375,0.20591211990261465,6.4,0,0
1966,shift,color,right,1,1,0.671820528753,right,0.6362041905189375,0.20591211990261465,6.4,0,0
1966,shift,color,right,0,1,0.687832213386,right,0.6362041905189375,0.20591211990261465,6.4,0,0
1966,shift,shape,left,1,1,0.967891117299,left,0.6362041905189375,0.20591211990261465,6.4,0,0
1966,shift,shape,right,0,1,0.695817473586,right,0.6362041905189375,0.20591211990261465,6.4,0,0
1966,shift,color,right,1,1,0.479745214433,right,0.6362041905189375,0.20591211990261465,6.4,0,0
1966,shift,shape,left,1,1,0.895832376841,left,0.6362041905189375,0.20591211990261465,6.4,0,0
1966,shift,color,left,1,1,0.831875478497,left,0.6362041905189375,0.20591211990261465,6.4,0,0
1966,shift,color,left,0,1,0.551812668488,left,0.6362041905189375,0.20591211990261465,6.4,0,0
1966,shift,color,right,0,1,0.383911876092,right,0.6362041905189375,0.20591211990261465,6.4,0,0
1966,shift,shape,left,1,1,0.375714785351,left,0.6362041905189375,0.20591211990261465,6.4,0,0
1966,shift,shape,right,0,1,1.02377051151,right,0.6362041905189375,0.20591211990261465,6.4,0,0
1966,shift,shape,right,0,1,0.871841441385,right,0.6362041905189375,0.20591211990261465,6.4,0,0
1966,shift,color,left,1,1,0.647901104884,left,0.6362041905189375,0.20591211990261465,6.4,0,0
1966,shift,shape,left,1,1,0.967777840542,left,0.6362041905189375,0.20591211990261465,6.4,0,0
1966,shift,color,right,1,1,0.687825603071,right,0.6362041905189375,0.20591211990261465,6.4,0,0
1966,shift,color,left,0,1,1.0558572797,left,0.6362041905189375,0.20591211990261465,6.4,0,0
1966,shift,color,right,0,1,0.383825641531,right,0.6362041905189375,0.20591211990261465,6.4,0,0
1966,shift,shape,left,1,1,0.383899857337,left,0.6362041905189375,0.20591211990261465,6.4,0,0
1966,shift,color,left,1,1,0.375746935518,left,0.6362041905189375,0.20591211990261465,6.4,0,0
1966,shift,shape,right,1,1,0.503905313852,right,0.6362041905189375,0.20591211990261465,6.4,0,0
1966,shift,color,right,1,1,0.687755894297,right,0.6362041905189375,0.20591211990261465,6.4,0,0
1966,shift,color,left,0,1,0.57583605458,left,0.6362041905189375,0.20591211990261465,6.4,0,0
1966,shift,shape,left,1,1,0.743842311543,left,0.6362041905189375,0.20591211990261465,6.4,0,0
1966,shift,shape,left,0,1,0.367904097554,left,0.6362041905189375,0.20591211990261465,6.4,0,0
1966,shift,color,left,1,1,0.351782140853,left,0.6362041905189375,0.20591211990261465,6.4,0,0
1966,shift,color,right,0,1,0.415846006108,right,0.6362041905189375,0.20591211990261465,6.4,0,0
1966,shift,color,right,0,1,0.343827528476,right,0.6362041905189375,0.20591211990261465,6.4,0,0
1966,shift,shape,left,1,1,0.767844664815,left,0.6362041905189375,0.20591211990261465,6.4,0,0
1966,shift,color,left,1,1,0.799801029526,left,0.6362041905189375,0.20591211990261465,6.4,0,0
1966,shift,shape,right,1,1,0.631858171491,right,0.6362041905189375,0.20591211990261465,6.4,0,0
1966,shift,shape,right,0,1,0.687812382442,right,0.6362041905189375,0.20591211990261465,6.4,0,0
1966,shift,shape,right,0,1,0.423869125383,right,0.6362041905189375,0.20591211990261465,6.4,0,0
1966,shift,color,right,1,1,0.383804608711,right,0.6362041905189375,0.20591211990261465,6.4,0,0
1966,shift,shape,right,1,1,0.343839246761,right,0.6362041905189375,0.20591211990261465,6.4,0,0
1966,shift,shape,left,0,1,0.511900489524,left,0.6362041905189375,0.20591211990261465,6.4,0,0
1966,shift,shape,right,0,1,0.639714831022,right,0.6362041905189375,0.20591211990261465,6.4,0,0
1966,shift,color,left,1,1,0.663892057166,left,0.6362041905189375,0.20591211990261465,6.4,0,0
1966,shift,shape,left,1,1,0.671785373897,left,0.6362041905189375,0.20591211990261465,6.4,0,0
1968,shape,shape,right,0,1,0.470485414606,right,0.40855831994245,0.058653105550409416,2,0,0
1968,shape,shape,left,0,1,0.431820088434,left,0.40855831994245,0.058653105550409416,2,0,0
1968,shape,shape,right,0,1,0.471830917358,right,0.40855831994245,0.058653105550409416,2,0,0
1968,shape,shape,right,0,1,0.455778931314,right,0.40855831994245,0.058653105550409416,2,0,0
1968,shape,shape,right,0,1,0.511909351935,right,0.40855831994245,0.058653105550409416,2,0,0
1968,shape,shape,left,0,1,0.343806841332,left,0.40855831994245,0.058653105550409416,2,0,0
1968,shape,shape,left,0,1,0.367857327431,left,0.40855831994245,0.058653105550409416,2,0,0
1968,shape,shape,right,0,1,0.471834522993,right,0.40855831994245,0.058653105550409416,2,0,0
1968,shape,shape,right,0,1,0.367848914283,right,0.40855831994245,0.058653105550409416,2,0,0
1968,shape,shape,right,0,1,0.38398022429400003,right,0.40855831994245,0.058653105550409416,2,0,0
1968,shape,shape,left,0,1,0.399653919145,left,0.40855831994245,0.058653105550409416,2,0,0
1968,shape,shape,right,0,1,0.47987418738,right,0.40855831994245,0.058653105550409416,2,0,0
1968,shape,shape,left,0,1,0.432149102618,left,0.40855831994245,0.058653105550409416,2,0,0
1968,shape,shape,left,0,1,0.391482649084,left,0.40855831994245,0.058653105550409416,2,0,0
1968,shape,shape,left,0,1,0.40780836291,left,0.40855831994245,0.058653105550409416,2,0,0
1968,shape,shape,right,0,1,0.319839284834,right,0.40855831994245,0.058653105550409416,2,0,0
1968,shape,shape,left,0,1,0.32793663938,left,0.40855831994245,0.058653105550409416,2,0,0
1968,shape,shape,left,0,1,0.431627186968,left,0.40855831994245,0.058653105550409416,2,0,0
1968,shape,shape,left,0,1,0.399795740784,left,0.40855831994245,0.058653105550409416,2,0,0
1968,shape,shape,right,0,1,0.303846791766,right,0.40855831994245,0.058653105550409416,2,0,0
1968,color,color,right,0,1,0.391871757182,right,0.37462247500395,0.05723327357607935,2,0,0
1968,color,color,left,0,1,0.311880446762,left,0.37462247500395,0.05723327357607935,2,0,0
1968,color,color,left,0,1,0.399773806505,left,0.37462247500395,0.05723327357607935,2,0,0
1968,color,color,right,0,1,0.399729337008,right,0.37462247500395,0.05723327357607935,2,0,0
1968,color,color,left,0,1,0.311701366896,left,0.37462247500395,0.05723327357607935,2,0,0
1968,color,color,left,0,1,0.391881672678,left,0.37462247500395,0.05723327357607935,2,0,0
1968,color,color,right,0,1,0.415791238548,right,0.37462247500395,0.05723327357607935,2,0,0
1968,color,color,left,0,1,0.351853416519,left,0.37462247500395,0.05723327357607935,2,0,0
1968,color,color,left,0,1,0.343802334288,left,0.37462247500395,0.05723327357607935,2,0,0
1968,color,color,left,0,1,0.423823992135,left,0.37462247500395,0.05723327357607935,2,0,0
1968,color,color,left,0,1,0.415893999142,left,0.37462247500395,0.05723327357607935,2,0,0
1968,color,color,right,0,1,0.311791207299,right,0.37462247500395,0.05723327357607935,2,0,0
1968,color,color,right,0,1,0.343834785002,right,0.37462247500395,0.05723327357607935,2,0,0
1968,color,color,right,0,1,0.279856099112,right,0.37462247500395,0.05723327357607935,2,0,0
1968,color,color,left,0,0,0.271803514532,right,0.37462247500395,0.05723327357607935,2,0,0
1968,color,color,right,0,1,0.383847416743,right,0.37462247500395,0.05723327357607935,2,0,0
1968,color,color,right,0,1,0.407907517869,right,0.37462247500395,0.05723327357607935,2,0,0
1968,color,color,right,0,1,0.439866663622,right,0.37462247500395,0.05723327357607935,2,0,0
1968,color,color,right,0,1,0.495713140496,right,0.37462247500395,0.05723327357607935,2,0,0
1968,color,color,left,0,1,0.399825787741,left,0.37462247500395,0.05723327357607935,2,0,0
1968,shift,shape,right,1,1,0.439845330282,right,0.41407329906429685,0.05960546900366403,6.4,0,0
1968,shift,shape,right,0,1,0.335836284946,right,0.41407329906429685,0.05960546900366403,6.4,0,0
1968,shift,color,left,1,1,0.567826739629,left,0.41407329906429685,0.05960546900366403,6.4,0,0
1968,shift,color,left,0,1,0.399843815916,left,0.41407329906429685,0.05960546900366403,6.4,0,0
1968,shift,shape,right,1,1,0.415821585975,right,0.41407329906429685,0.05960546900366403,6.4,0,0
1968,shift,shape,right,0,1,0.399875064751,right,0.41407329906429685,0.05960546900366403,6.4,0,0
1968,shift,shape,left,0,1,0.367832087987,left,0.41407329906429685,0.05960546900366403,6.4,0,0
1968,shift,shape,right,0,1,0.351814055005,right,0.41407329906429685,0.05960546900366403,6.4,0,0
1968,shift,color,right,1,1,0.383817670255,right,0.41407329906429685,0.05960546900366403,6.4,0,0
1968,shift,color,left,0,1,0.343921320239,left,0.41407329906429685,0.05960546900366403,6.4,0,0
1968,shift,color,right,0,1,0.375758475345,right,0.41407329906429685,0.05960546900366403,6.4,0,0
1968,shift,shape,right,1,1,0.455892208343,right,0.41407329906429685,0.05960546900366403,6.4,0,0
1968,shift,shape,left,0,1,0.327819456246,left,0.41407329906429685,0.05960546900366403,6.4,0,0
1968,shift,shape,left,0,1,0.327790310697,left,0.41407329906429685,0.05960546900366403,6.4,0,0
1968,shift,color,right,1,1,0.40788588406,right,0.41407329906429685,0.05960546900366403,6.4,0,0
1968,shift,color,right,0,1,0.367865740579,right,0.41407329906429685,0.05960546900366403,6.4,0,0
1968,shift,shape,left,1,1,0.455843231803,left,0.41407329906429685,0.05960546900366403,6.4,0,0
1968,shift,shape,right,0,1,0.327735024296,right,0.41407329906429685,0.05960546900366403,6.4,0,0
1968,shift,color,left,1,1,0.36783719597,left,0.41407329906429685,0.05960546900366403,6.4,0,0
1968,shift,color,left,0,1,0.407851630528,left,0.41407329906429685,0.05960546900366403,6.4,0,0
1968,shift,color,left,0,1,0.423774114186,left,0.41407329906429685,0.05960546900366403,6.4,0,0
1968,shift,color,right,0,1,0.423878377128,right,0.41407329906429685,0.05960546900366403,6.4,0,0
1968,shift,shape,left,1,1,0.447878985278,left,0.41407329906429685,0.05960546900366403,6.4,0,0
1968,shift,color,right,1,1,0.471818898575,right,0.41407329906429685,0.05960546900366403,6.4,0,0
1968,shift,shape,left,1,1,0.439751884245,left,0.41407329906429685,0.05960546900366403,6.4,0,0
1968,shift,color,left,1,1,0.463872980694,left,0.41407329906429685,0.05960546900366403,6.4,0,0
1968,shift,color,left,0,1,0.439837818543,left,0.41407329906429685,0.05960546900366403,6.4,0,0
1968,shift,shape,left,1,1,0.431869665914,left,0.41407329906429685,0.05960546900366403,6.4,0,0
1968,shift,shape,right,0,1,0.343759968078,right,0.41407329906429685,0.05960546900366403,6.4,0,0
1968,shift,color,right,1,1,0.495972746208,right,0.41407329906429685,0.05960546900366403,6.4,0,0
1968,shift,shape,right,1,1,0.39978402247,right,0.41407329906429685,0.05960546900366403,6.4,0,0
1968,shift,color,left,1,1,0.351793623074,left,0.41407329906429685,0.05960546900366403,6.4,0,0
1968,shift,color,right,0,1,0.45573926933,right,0.41407329906429685,0.05960546900366403,6.4,0,0
1968,shift,shape,left,1,1,0.399948078858,left,0.41407329906429685,0.05960546900366403,6.4,0,0
1968,shift,shape,left,0,1,0.487793964408,left,0.41407329906429685,0.05960546900366403,6.4,0,0
1968,shift,color,left,1,1,0.583764547234,left,0.41407329906429685,0.05960546900366403,6.4,0,0
1968,shift,shape,left,1,1,0.343909601926,left,0.41407329906429685,0.05960546900366403,6.4,0,0
1968,shift,color,right,1,1,0.431784032085,right,0.41407329906429685,0.05960546900366403,6.4,0,0
1968,shift,color,right,0,1,0.375865442514,right,0.41407329906429685,0.05960546900366403,6.4,0,0
1968,shift,color,right,0,1,0.463696905524,right,0.41407329906429685,0.05960546900366403,6.4,0,0
1968,shift,shape,right,1,1,0.455952302258,right,0.41407329906429685,0.05960546900366403,6.4,0,0
1968,shift,color,left,1,1,0.375616653706,left,0.41407329906429685,0.05960546900366403,6.4,0,0
1968,shift,color,left,0,1,0.375842005887,left,0.41407329906429685,0.05960546900366403,6.4,0,0
1968,shift,shape,left,1,1,0.399880473204,left,0.41407329906429685,0.05960546900366403,6.4,0,0
1968,shift,shape,right,0,1,0.407848625833,right,0.41407329906429685,0.05960546900366403,6.4,0,0
1968,shift,shape,right,0,1,0.375729630266,right,0.41407329906429685,0.05960546900366403,6.4,0,0
1968,shift,shape,right,0,1,0.35183208318,right,0.41407329906429685,0.05960546900366403,6.4,0,0
1968,shift,color,right,1,1,0.399870557708,right,0.41407329906429685,0.05960546900366403,6.4,0,0
1968,shift,shape,left,1,1,0.407783724405,left,0.41407329906429685,0.05960546900366403,6.4,0,0
1968,shift,shape,left,0,1,0.487826114652,left,0.41407329906429685,0.05960546900366403,6.4,0,0
1968,shift,color,left,1,1,0.487835429209,left,0.41407329906429685,0.05960546900366403,6.4,0,0
1968,shift,shape,right,1,1,0.559846568217,right,0.41407329906429685,0.05960546900366403,6.4,0,0
1968,shift,color,right,1,1,0.367892782841,right,0.41407329906429685,0.05960546900366403,6.4,0,0
1968,shift,shape,left,1,1,0.503693311908,left,0.41407329906429685,0.05960546900366403,6.4,0,0
1968,shift,shape,left,0,1,0.399797543601,left,0.41407329906429685,0.05960546900366403,6.4,0,0
1968,shift,shape,left,0,1,0.439816485203,left,0.41407329906429685,0.05960546900366403,6.4,0,0
1968,shift,color,left,1,1,0.335866331903,left,0.41407329906429685,0.05960546900366403,6.4,0,0
1968,shift,color,right,0,1,0.359724217006,right,0.41407329906429685,0.05960546900366403,6.4,0,0
1968,shift,shape,right,1,1,0.335661111185,right,0.41407329906429685,0.05960546900366403,6.4,0,0
1968,shift,color,left,1,1,0.407821583571,left,0.41407329906429685,0.05960546900366403,6.4,0,0
1968,shift,shape,right,1,1,0.479851952631,right,0.41407329906429685,0.05960546900366403,6.4,0,0
1968,shift,color,right,1,1,0.407778916891,right,0.41407329906429685,0.05960546900366403,6.4,0,0
1968,shift,color,left,0,1,0.383931848693,left,0.41407329906429685,0.05960546900366403,6.4,0,0
1968,shift,color,right,0,1,0.487782847033,right,0.41407329906429685,0.05960546900366403,6.4,0,0
1969,color,color,right,0,1,0.480883295885,right,0.43468835014045,0.06410917738538667,2,0,0
1969,color,color,left,0,1,0.343836501382,left,0.43468835014045,0.06410917738538667,2,0,0
1969,color,color,right,0,1,0.33583199674500003,right,0.43468835014045,0.06410917738538667,2,0,0
1969,color,color,right,0,1,0.599890208484,right,0.43468835014045,0.06410917738538667,2,0,0
1969,color,color,left,0,1,0.431822953818,left,0.43468835014045,0.06410917738538667,2,0,0
1969,color,color,right,0,1,0.38382326871,right,0.43468835014045,0.06410917738538667,2,0,0
1969,color,color,left,0,1,0.463835563918,left,0.43468835014045,0.06410917738538667,2,0,0
1969,color,color,left,0,1,0.447791700194,left,0.43468835014045,0.06410917738538667,2,0,0
1969,color,color,right,0,1,0.471865908923,right,0.43468835014045,0.06410917738538667,2,0,0
1969,color,color,left,0,1,0.455830758811,left,0.43468835014045,0.06410917738538667,2,0,0
1969,color,color,left,0,1,0.471846378412,left,0.43468835014045,0.06410917738538667,2,0,0
1969,color,color,left,0,1,0.375833186604,left,0.43468835014045,0.06410917738538667,2,0,0
1969,color,color,right,0,1,0.455822345668,right,0.43468835014045,0.06410917738538667,2,0,0
1969,color,color,left,0,1,0.38383829218,left,0.43468835014045,0.06410917738538667,2,0,0
1969,color,color,right,0,1,0.479862901825,right,0.43468835014045,0.06410917738538667,2,0,0
1969,color,color,right,0,1,0.503762838306,right,0.43468835014045,0.06410917738538667,2,0,0
1969,color,color,left,0,1,0.447879437257,left,0.43468835014045,0.06410917738538667,2,0,0
1969,color,color,right,0,1,0.351871653898,right,0.43468835014045,0.06410917738538667,2,0,0
1969,color,color,left,0,1,0.431783892797,left,0.43468835014045,0.06410917738538667,2,0,0
1969,color,color,right,0,1,0.375853918992,right,0.43468835014045,0.06410917738538667,2,0,0
1969,shape,shape,left,0,1,0.631825597949,left,0.58863433956515,0.1480576308228427,2,0,0
1969,shape,shape,left,0,1,0.463871920715,left,0.58863433956515,0.1480576308228427,2,0,0
1969,shape,shape,left,0,1,0.759830366999,left,0.58863433956515,0.1480576308228427,2,0,0
1969,shape,shape,right,0,1,0.807857094353,right,0.58863433956515,0.1480576308228427,2,0,0
1969,shape,shape,right,0,1,0.551829227619,right,0.58863433956515,0.1480576308228427,2,0,0
1969,shape,shape,left,0,1,0.687834895674,left,0.58863433956515,0.1480576308228427,2,0,0
1969,shape,shape,left,0,1,0.687786820571,left,0.58863433956515,0.1480576308228427,2,0,0
1969,shape,shape,left,0,1,0.391900486941,left,0.58863433956515,0.1480576308228427,2,0,0
1969,shape,shape,left,0,1,0.879778349738,left,0.58863433956515,0.1480576308228427,2,0,0
1969,shape,shape,left,0,1,0.391848205266,left,0.58863433956515,0.1480576308228427,2,0,0
1969,shape,shape,left,0,1,0.4477886955,left,0.58863433956515,0.1480576308228427,2,0,0
1969,shape,shape,right,0,1,0.743851404664,right,0.58863433956515,0.1480576308228427,2,0,0
1969,shape,shape,right,0,1,0.471834660106,right,0.58863433956515,0.1480576308228427,2,0,0
1969,shape,shape,right,0,1,0.359840703146,right,0.58863433956515,0.1480576308228427,2,0,0
1969,shape,shape,right,0,1,0.527883319321,right,0.58863433956515,0.1480576308228427,2,0,0
1969,shape,shape,right,0,1,0.567824114832,right,0.58863433956515,0.1480576308228427,2,0,0
1969,shape,shape,right,0,1,0.527800690238,right,0.58863433956515,0.1480576308228427,2,0,0
1969,shape,shape,left,0,1,0.615838222471,left,0.58863433956515,0.1480576308228427,2,0,0
1969,shape,shape,right,0,1,0.535836143223,right,0.58863433956515,0.1480576308228427,2,0,0
1969,shape,shape,right,0,1,0.719825871977,right,0.58863433956515,0.1480576308228427,2,0,0
1969,shift,shape,right,0,1,0.527900746546,right,0.5232094380967344,0.1556877755440593,6.4,0,0
1969,shift,shape,left,0,1,0.607759501894,left,0.5232094380967344,0.1556877755440593,6.4,0,0
1969,shift,color,right,1,1,0.599854152157,right,0.5232094380967344,0.1556877755440593,6.4,0,0
1969,shift,color,left,0,1,0.519765838192,left,0.5232094380967344,0.1556877755440593,6.4,0,0
1969,shift,shape,left,1,1,0.735936740376,left,0.5232094380967344,0.1556877755440593,6.4,0,0
1969,shift,shape,right,0,1,0.679760982607,right,0.5232094380967344,0.1556877755440593,6.4,0,0
1969,shift,color,right,1,1,0.487914580157,right,0.5232094380967344,0.1556877755440593,6.4,0,0
1969,shift,shape,right,1,1,0.551724664271,right,0.5232094380967344,0.1556877755440593,6.4,0,0
1969,shift,color,left,1,1,0.40784249154,left,0.5232094380967344,0.1556877755440593,6.4,0,0
1969,shift,shape,left,1,1,0.607850844589,left,0.5232094380967344,0.1556877755440593,6.4,0,0
1969,shift,color,left,1,1,0.495809713935,left,0.5232094380967344,0.1556877755440593,6.4,0,0
1969,shift,color,right,0,1,0.519817218459,right,0.5232094380967344,0.1556877755440593,6.4,0,0
1969,shift,shape,left,1,1,0.431849094656,left,0.5232094380967344,0.1556877755440593,6.4,0,0
1969,shift,shape,left,0,1,0.463868014613,left,0.5232094380967344,0.1556877755440593,6.4,0,0
1969,shift,shape,left,0,1,0.43178239045,left,0.5232094380967344,0.1556877755440593,6.4,0,0
1969,shift,shape,right,0,1,0.40781274507,right,0.5232094380967344,0.1556877755440593,6.4,0,0
1969,shift,color,right,1,1,0.463849085041,right,0.5232094380967344,0.1556877755440593,6.4,0,0
1969,shift,color,right,0,1,0.4719220967,right,0.5232094380967344,0.1556877755440593,6.4,0,0
1969,shift,shape,left,1,0,0.527818718402,right,0.5232094380967344,0.1556877755440593,6.4,0,0
1969,shift,color,right,1,1,0.551795274578,right,0.5232094380967344,0.1556877755440593,6.4,0,0
1969,shift,color,left,0,1,0.487841566095,left,0.5232094380967344,0.1556877755440593,6.4,0,0
1969,shift,shape,left,1,1,0.431806127532,left,0.5232094380967344,0.1556877755440593,6.4,0,0
1969,shift,color,right,1,1,0.511820526026,right,0.5232094380967344,0.1556877755440593,6.4,0,0
1969,shift,color,right,0,1,0.727980010372,right,0.5232094380967344,0.1556877755440593,6.4,0,0
1969,shift,color,left,0,1,0.399707583186,left,0.5232094380967344,0.1556877755440593,6.4,0,0
1969,shift,shape,left,1,1,0.463831958285,left,0.5232094380967344,0.1556877755440593,6.4,0,0
1969,shift,shape,left,0,1,0.45581152877,left,0.5232094380967344,0.1556877755440593,6.4,0,0
1969,shift,shape,right,0,1,0.43990437862,right,0.5232094380967344,0.1556877755440593,6.4,0,0
1969,shift,shape,right,0,1,0.495761037893,right,0.5232094380967344,0.1556877755440593,6.4,0,0
1969,shift,color,left,1,1,0.407940444562,left,0.5232094380967344,0.1556877755440593,6.4,0,0
1969,shift,color,right,0,1,0.519771547111,right,0.5232094380967344,0.1556877755440593,6.4,0,0
1969,shift,shape,right,1,1,0.44785810393,right,0.5232094380967344,0.1556877755440593,6.4,0,0
1969,shift,shape,left,0,1,0.415777587748,left,0.5232094380967344,0.1556877755440593,6.4,0,0
1969,shift,color,left,1,1,0.511880319435,left,0.5232094380967344,0.1556877755440593,6.4,0,0
1969,shift,shape,left,1,1,0.575821408204,left,0.5232094380967344,0.1556877755440593,6.4,0,0
1969,shift,color,left,1,1,0.447826855113,left,0.5232094380967344,0.1556877755440593,6.4,0,0
1969,shift,color,right,0,1,0.351794132794,right,0.5232094380967344,0.1556877755440593,6.4,0,0
1969,shift,shape,right,1,1,0.527870699607,right,0.5232094380967344,0.1556877755440593,6.4,0,0
1969,shift,shape,right,0,1,0.431861113431,right,0.5232094380967344,0.1556877755440593,6.4,0,0
1969,shift,color,left,1,1,1.31981006729,left,0.5232094380967344,0.1556877755440593,6.4,1,0
1969,shift,color,right,0,1,0.351853926204,right,0.5232094380967344,0.1556877755440593,6.4,0,0
1969,shift,color,right,0,1,0.383788113791,right,0.5232094380967344,0.1556877755440593,6.4,0,0
1969,shift,shape,left,1,1,0.615876382084,left,0.5232094380967344,0.1556877755440593,6.4,0,0
1969,shift,color,right,1,1,0.743811742705,right,0.5232094380967344,0.1556877755440593,6.4,0,0
1969,shift,shape,left,1,1,0.599889908014,left,0.5232094380967344,0.1556877755440593,6.4,0,0
1969,shift,shape,right,0,1,0.399764972841,right,0.5232094380967344,0.1556877755440593,6.4,0,0
1969,shift,shape,right,0,1,0.431831066492,right,0.5232094380967344,0.1556877755440593,6.4,0,0
1969,shift,color,left,1,1,0.367859630314,left,0.5232094380967344,0.1556877755440593,6.4,0,0
1969,shift,color,left,0,1,0.591838229682,left,0.5232094380967344,0.1556877755440593,6.4,0,0
1969,shift,shape,left,1,1,0.432066634496,left,0.5232094380967344,0.1556877755440593,6.4,0,0
1969,shift,color,left,1,1,0.647570795096,left,0.5232094380967344,0.1556877755440593,6.4,0,0
1969,shift,color,left,0,1,0.471869514556,left,0.5232094380967344,0.1556877755440593,6.4,0,0
1969,shift,shape,right,1,1,0.455819340975,right,0.5232094380967344,0.1556877755440593,6.4,0,0
1969,shift,shape,right,0,1,0.455827153179,right,0.5232094380967344,0.1556877755440593,6.4,0,0
1969,shift,shape,left,0,1,0.431806127532,left,0.5232094380967344,0.1556877755440593,6.4,0,0
1969,shift,color,left,1,1,0.40792692344,left,0.5232094380967344,0.1556877755440593,6.4,0,0
1969,shift,color,right,0,1,0.879806593861,right,0.5232094380967344,0.1556877755440593,6.4,0,0
1969,shift,color,right,0,1,0.887763023395,right,0.5232094380967344,0.1556877755440593,6.4,0,0
1969,shift,shape,right,1,1,0.607913041754,right,0.5232094380967344,0.1556877755440593,6.4,0,0
1969,shift,shape,right,0,1,0.423814543079,right,0.5232094380967344,0.1556877755440593,6.4,0,0
1969,shift,shape,right,0,1,0.75986492098,right,0.5232094380967344,0.1556877755440593,6.4,0,0
1969,shift,color,left,1,1,0.455859603873,left,0.5232094380967344,0.1556877755440593,6.4,0,0
1969,shift,color,right,0,1,0.423790805997,right,0.5232094380967344,0.1556877755440593,6.4,0,0
1969,shift,color,left,0,1,0.391879153614,left,0.5232094380967344,0.1556877755440593,6.4,0,0
1974,shape,shape,right,0,1,0.821650556003,right,0.4149217412678,0.1282901923287671,2,1,0
1974,shape,shape,right,0,1,0.383819006907,right,0.4149217412678,0.1282901923287671,2,0,0
1974,shape,shape,left,0,1,0.631837186502,left,0.4149217412678,0.1282901923287671,2,0,0
1974,shape,shape,left,0,1,0.38381750456,left,0.4149217412678,0.1282901923287671,2,0,0
1974,shape,shape,left,0,1,0.32792660857,left,0.4149217412678,0.1282901923287671,2,0,0
1974,shape,shape,right,0,1,0.303747242819,right,0.4149217412678,0.1282901923287671,2,0,0
1974,shape,shape,right,0,1,0.479772076005,right,0.4149217412678,0.1282901923287671,2,0,0
1974,shape,shape,left,0,1,0.359905556489,left,0.4149217412678,0.1282901923287671,2,0,0
1974,shape,shape,left,0,1,0.35180039704,left,0.4149217412678,0.1282901923287671,2,0,0
1974,shape,shape,right,0,1,0.351869204511,right,0.4149217412678,0.1282901923287671,2,0,0
1974,shape,shape,right,0,1,0.423784729369,right,0.4149217412678,0.1282901923287671,2,0,0
1974,shape,shape,right,0,1,0.367829833417,right,0.4149217412678,0.1282901923287671,2,0,0
1974,shape,shape,left,0,1,0.367875204282,left,0.4149217412678,0.1282901923287671,2,0,0
1974,shape,shape,left,0,1,0.583873872602,left,0.4149217412678,0.1282901923287671,2,0,0
1974,shape,shape,right,0,1,0.359744204473,right,0.4149217412678,0.1282901923287671,2,0,0
1974,shape,shape,left,0,1,0.295881857874,left,0.4149217412678,0.1282901923287671,2,0,0
1974,shape,shape,left,0,1,0.367858978939,left,0.4149217412678,0.1282901923287671,2,0,0
1974,shape,shape,left,0,1,0.311781491512,left,0.4149217412678,0.1282901923287671,2,0,0
1974,shape,shape,right,0,1,0.407828607502,right,0.4149217412678,0.1282901923287671,2,0,0
1974,shape,shape,right,0,1,0.41583070598,right,0.4149217412678,0.1282901923287671,2,0,0
1974,color,color,right,0,1,0.367810903851,right,0.36103524595075,0.08162483715672227,2,0,0
1974,color,color,left,0,1,0.30380703621,left,0.36103524595075,0.08162483715672227,2,0,0
1974,color,color,left,0,1,0.343866805564,left,0.36103524595075,0.08162483715672227,2,0,0
1974,color,color,left,0,1,0.351803702202,left,0.36103524595075,0.08162483715672227,2,0,0
1974,color,color,right,0,1,0.263865952231,right,0.36103524595075,0.08162483715672227,2,0,0
1974,color,color,left,0,1,0.51182193468,left,0.36103524595075,0.08162483715672227,2,0,0
1974,color,color,left,0,1,0.375837039873,left,0.36103524595075,0.08162483715672227,2,0,0
1974,color,color,left,0,1,0.351841260865,left,0.36103524595075,0.08162483715672227,2,0,0
1974,color,color,right,0,1,0.287849712466,right,0.36103524595075,0.08162483715672227,2,0,0
1974,color,color,right,0,1,0.559836027892,right,0.36103524595075,0.08162483715672227,2,0,0
1974,color,color,right,0,1,0.40784242909,right,0.36103524595075,0.08162483715672227,2,0,0
1974,color,color,left,0,1,0.279855125721,left,0.36103524595075,0.08162483715672227,2,0,0
1974,color,color,right,0,1,0.327818439621,right,0.36103524595075,0.08162483715672227,2,0,0
1974,color,color,right,0,1,0.415807870313,right,0.36103524595075,0.08162483715672227,2,0,0
1974,color,color,right,0,1,0.431792536763,right,0.36103524595075,0.08162483715672227,2,0,0
1974,color,color,right,0,1,0.311912796597,right,0.36103524595075,0.08162483715672227,2,0,0
1974,color,color,left,0,1,0.271820576559,left,0.36103524595075,0.08162483715672227,2,0,0
1974,color,color,left,0,1,0.319848491359,left,0.36103524595075,0.08162483715672227,2,0,0
1974,color,color,right,0,1,0.279865642146,right,0.36103524595075,0.08162483715672227,2,0,0
1974,color,color,left,0,1,0.455800635012,left,0.36103524595075,0.08162483715672227,2,0,0
1974,shift,color,right,0,1,0.375866786334,right,0.5138334076494219,0.22506923839011428,6.4,0,0
1974,shift,color,right,0,1,0.34383405441,right,0.5138334076494219,0.22506923839011428,6.4,0,0
1974,shift,shape,left,1,1,0.431770302035,left,0.5138334076494219,0.22506923839011428,6.4,0,0
1974,shift,shape,left,0,1,0.399855955016,left,0.5138334076494219,0.22506923839011428,6.4,0,0
1974,shift,color,left,1,1,0.535809300547,left,0.5138334076494219,0.22506923839011428,6.4,0,0
1974,shift,color,right,0,1,0.255867459385,right,0.5138334076494219,0.22506923839011428,6.4,0,0
1974,shift,color,right,0,1,0.519877516693,right,0.5138334076494219,0.22506923839011428,6.4,0,0
1974,shift,shape,left,1,1,0.367833739518,left,0.5138334076494219,0.22506923839011428,6.4,0,0
1974,shift,color,left,1,1,0.311840083026,left,0.5138334076494219,0.22506923839011428,6.4,0,0
1974,shift,color,left,0,1,0.327778777673,left,0.5138334076494219,0.22506923839011428,6.4,0,0
1974,shift,shape,right,1,0,0.327840073411,left,0.5138334076494219,0.22506923839011428,6.4,0,0
1974,shift,shape,left,0,1,1.14383958304,left,0.5138334076494219,0.22506923839011428,6.4,0,0
1974,shift,color,left,1,1,0.583816482965,left,0.5138334076494219,0.22506923839011428,6.4,0,0
1974,shift,color,right,0,1,0.3438595943,right,0.5138334076494219,0.22506923839011428,6.4,0,0
1974,shift,shape,right,1,1,0.607885276013,right,0.5138334076494219,0.22506923839011428,6.4,0,0
1974,shift,shape,right,0,1,0.511705052121,right,0.5138334076494219,0.22506923839011428,6.4,0,0
1974,shift,color,left,1,1,0.391884804877,left,0.5138334076494219,0.22506923839011428,6.4,0,0
1974,shift,shape,left,1,1,0.303813346065,left,0.5138334076494219,0.22506923839011428,6.4,0,0
1974,shift,color,right,1,1,0.311804026709,right,0.5138334076494219,0.22506923839011428,6.4,0,0
1974,shift,color,right,0,1,0.335877927735,right,0.5138334076494219,0.22506923839011428,6.4,0,0
1974,shift,shape,left,1,1,0.37576492724,left,0.5138334076494219,0.22506923839011428,6.4,0,0
1974,shift,shape,left,0,1,0.407925959556,left,0.5138334076494219,0.22506923839011428,6.4,0,0
1974,shift,color,left,1,1,0.303797721662,left,0.5138334076494219,0.22506923839011428,6.4,0,0
1974,shift,color,left,0,1,0.319772172156,left,0.5138334076494219,0.22506923839011428,6.4,0,0
1974,shift,shape,left,1,1,0.447919024725,left,0.5138334076494219,0.22506923839011428,6.4,0,0
1974,shift,shape,right,0,1,0.407827105156,right,0.5138334076494219,0.22506923839011428,6.4,0,0
1974,shift,shape,left,0,1,0.32784878702,left,0.5138334076494219,0.22506923839011428,6.4,0,0
1974,shift,shape,right,0,1,0.55978524858,right,0.5138334076494219,0.22506923839011428,6.4,0,0
1974,shift,color,right,1,1,0.255845224656,right,0.5138334076494219,0.22506923839011428,6.4,0,0
1974,shift,shape,right,1,1,0.407877884468,right,0.5138334076494219,0.22506923839011428,6.4,0,0
1974,shift,shape,left,0,1,0.287788116259,left,0.5138334076494219,0.22506923839011428,6.4,0,0
1974,shift,color,left,1,1,0.295837989356,left,0.5138334076494219,0.22506923839011428,6.4,0,0
1974,shift,shape,left,1,1,0.839812122554,left,0.5138334076494219,0.22506923839011428,6.4,0,0
1974,shift,shape,right,0,1,0.527878112824,right,0.5138334076494219,0.22506923839011428,6.4,0,0
1974,shift,color,left,1,1,0.343843969897,left,0.5138334076494219,0.22506923839011428,6.4,0,0
1974,shift,color,right,0,1,0.823889052311,right,0.5138334076494219,0.22506923839011428,6.4,0,0
1974,shift,color,right,0,1,0.74378393613,right,0.5138334076494219,0.22506923839011428,6.4,0,0
1974,shift,shape,left,1,1,0.783793226641,left,0.5138334076494219,0.22506923839011428,6.4,0,0
1974,shift,color,left,1,1,0.687848871152,left,0.5138334076494219,0.22506923839011428,6.4,0,0
1974,shift,color,left,0,1,0.967842092564,left,0.5138334076494219,0.22506923839011428,6.4,0,0
1974,shift,color,left,0,1,0.367816913237,left,0.5138334076494219,0.22506923839011428,6.4,0,0
1974,shift,shape,right,1,1,0.391871884697,right,0.5138334076494219,0.22506923839011428,6.4,0,0
1974,shift,shape,right,0,1,0.50379489725,right,0.5138334076494219,0.22506923839011428,6.4,0,0
1974,shift,color,right,1,0,0.447904001259,left,0.5138334076494219,0.22506923839011428,6.4,0,0
1974,shift,shape,right,1,1,0.407770616927,right,0.5138334076494219,0.22506923839011428,6.4,0,0
1974,shift,shape,left,0,1,0.919847830326,left,0.5138334076494219,0.22506923839011428,6.4,0,0
1974,shift,color,left,1,0,0.815788099433,right,0.5138334076494219,0.22506923839011428,6.4,0,0
1974,shift,color,right,0,1,0.887890215728,right,0.5138334076494219,0.22506923839011428,6.4,0,0
1974,shift,shape,left,1,1,0.383811194705,left,0.5138334076494219,0.22506923839011428,6.4,0,0
1974,shift,color,left,1,1,0.375852664276,left,0.5138334076494219,0.22506923839011428,6.4,0,0
1974,shift,shape,left,1,1,0.519818023771,left,0.5138334076494219,0.22506923839011428,6.4,0,0
1974,shift,shape,right,0,1,0.319864716701,right,0.5138334076494219,0.22506923839011428,6.4,0,0
1974,shift,shape,right,0,1,0.551802380138,right,0.5138334076494219,0.22506923839011428,6.4,0,0
1974,shift,color,right,1,1,0.879852661873,right,0.5138334076494219,0.22506923839011428,6.4,0,0
1974,shift,color,right,0,1,0.967814749858,right,0.5138334076494219,0.22506923839011428,6.4,0,0
1974,shift,shape,right,1,1,0.319806125187,right,0.5138334076494219,0.22506923839011428,6.4,0,0
1974,shift,shape,right,0,0,0.831859601512,left,0.5138334076494219,0.22506923839011428,6.4,0,0
1974,shift,color,right,1,1,0.631814951773,right,0.5138334076494219,0.22506923839011428,6.4,0,0
1974,shift,shape,left,1,1,0.935825285513,left,0.5138334076494219,0.22506923839011428,6.4,0,0
1974,shift,shape,right,0,1,0.343810317335,right,0.5138334076494219,0.22506923839011428,6.4,0,0
1974,shift,color,right,1,1,0.399836724981,right,0.5138334076494219,0.22506923839011428,6.4,0,0
1974,shift,color,left,0,1,0.287846106834,left,0.5138334076494219,0.22506923839011428,6.4,0,0
1974,shift,shape,right,1,1,0.767840409936,right,0.5138334076494219,0.22506923839011428,6.4,0,0
1974,shift,color,left,1,1,0.775856029533,left,0.5138334076494219,0.22506923839011428,6.4,0,0
1985,shape,shape,right,0,1,0.463623858669,right,0.5246206130044,0.14027558976000126,2,0,0
1985,shape,shape,left,0,1,0.647833799861,left,0.5246206130044,0.14027558976000126,2,0,0
1985,shape,shape,left,0,1,0.495862363632,left,0.5246206130044,0.14027558976000126,2,0,0
1985,shape,shape,left,0,1,0.367801637675,left,0.5246206130044,0.14027558976000126,2,0,0
1985,shape,shape,left,0,1,0.375828062108,left,0.5246206130044,0.14027558976000126,2,0,0
1985,shape,shape,left,0,1,0.431814122757,left,0.5246206130044,0.14027558976000126,2,0,0
1985,shape,shape,right,0,1,0.519859308465,right,0.5246206130044,0.14027558976000126,2,0,0
1985,shape,shape,right,0,1,0.503818177885,right,0.5246206130044,0.14027558976000126,2,0,0
1985,shape,shape,right,0,1,0.431845972455,right,0.5246206130044,0.14027558976000126,2,0,0
1985,shape,shape,left,0,1,0.495846438783,left,0.5246206130044,0.14027558976000126,2,0,0
1985,shape,shape,left,0,1,0.383836157941,left,0.5246206130044,0.14027558976000126,2,0,0
1985,shape,shape,right,0,1,0.567864015009,right,0.5246206130044,0.14027558976000126,2,0,0
1985,shape,shape,left,0,1,0.751790013136,left,0.5246206130044,0.14027558976000126,2,0,0
1985,shape,shape,left,0,1,0.439850763131,left,0.5246206130044,0.14027558976000126,2,0,0
1985,shape,shape,right,0,1,0.64784972471,right,0.5246206130044,0.14027558976000126,2,0,0
1985,shape,shape,right,0,1,0.527799197868,right,0.5246206130044,0.14027558976000126,2,0,0
1985,shape,shape,right,0,1,0.495769218288,right,0.5246206130044,0.14027558976000126,2,0,0
1985,shape,shape,right,0,1,0.951877930322,right,0.5246206130044,0.14027558976000126,2,1,0
1985,shape,shape,left,0,1,0.559796426344,left,0.5246206130044,0.14027558976000126,2,0,0
1985,shape,shape,right,0,1,0.431845071049,right,0.5246206130044,0.14027558976000126,2,0,0
1985,color,color,right,0,1,0.615880439838,right,0.52103543369065,0.13593260056347886,2,0,0
1985,color,color,right,0,1,0.407749572433,right,0.52103543369065,0.13593260056347886,2,0,0
1985,color,color,left,0,1,0.407885985291,left,0.52103543369065,0.13593260056347886,2,0,0
1985,color,color,right,0,1,0.455871762298,right,0.52103543369065,0.13593260056347886,2,0,0
1985,color,color,right,0,1,0.78378513833,right,0.52103543369065,0.13593260056347886,2,0,0
1985,color,color,right,0,1,0.455915330281,right,0.52103543369065,0.13593260056347886,2,0,0
1985,color,color,left,0,1,0.791776107438,left,0.52103543369065,0.13593260056347886,2,0,0
1985,color,color,left,0,1,0.439823119996,left,0.52103543369065,0.13593260056347886,2,0,0
1985,color,color,left,0,1,0.399847542105,left,0.52103543369065,0.13593260056347886,2,0,0
1985,color,color,right,0,1,0.495813387209,right,0.52103543369065,0.13593260056347886,2,0,0
1985,color,color,left,0,1,0.551808762393,left,0.52103543369065,0.13593260056347886,2,0,0
1985,color,color,left,0,1,0.359892997033,left,0.52103543369065,0.13593260056347886,2,0,0
1985,color,color,right,0,1,0.447816492855,right,0.52103543369065,0.13593260056347886,2,0,0
1985,color,color,left,0,1,0.663840676992,left,0.52103543369065,0.13593260056347886,2,0,0
1985,color,color,right,0,1,0.551835203652,right,0.52103543369065,0.13593260056347886,2,0,0
1985,color,color,left,0,1,0.431775061806,left,0.52103543369065,0.13593260056347886,2,0,0
1985,color,color,left,0,1,0.487899939065,left,0.52103543369065,0.13593260056347886,2,0,0
1985,color,color,left,0,1,0.439819213901,left,0.52103543369065,0.13593260056347886,2,0,0
1985,color,color,right,0,1,0.447835722862,right,0.52103543369065,0.13593260056347886,2,0,0
1985,color,color,right,0,1,0.783836218035,right,0.52103543369065,0.13593260056347886,2,0,0
1985,shift,shape,right,1,1,0.559819862914,right,0.6834562178949843,0.21309562071601884,6.4,0,0
1985,shift,color,right,1,1,0.607850109311,right,0.6834562178949843,0.21309562071601884,6.4,0,0
1985,shift,color,right,0,1,0.423943641658,right,0.6834562178949843,0.21309562071601884,6.4,0,0
1985,shift,color,right,0,1,0.383716571338,right,0.6834562178949843,0.21309562071601884,6.4,0,0
1985,shift,shape,right,1,1,0.551796743639,right,0.6834562178949843,0.21309562071601884,6.4,0,0
1985,shift,color,left,1,1,0.463868740783,left,0.6834562178949843,0.21309562071601884,6.4,0,0
1985,shift,shape,right,1,1,0.903796604221,right,0.6834562178949843,0.21309562071601884,6.4,0,0
1985,shift,color,left,1,0,0.519807327354,right,0.6834562178949843,0.21309562071601884,6.4,0,0
1985,shift,shape,right,1,1,0.687860757927,right,0.6834562178949843,0.21309562071601884,6.4,0,0
1985,shift,shape,left,0,1,0.687841828389,left,0.6834562178949843,0.21309562071601884,6.4,0,0
1985,shift,shape,left,0,1,0.471807428311,left,0.6834562178949843,0.21309562071601884,6.4,0,0
1985,shift,shape,left,0,1,0.52781181756,left,0.6834562178949843,0.21309562071601884,6.4,0,0
1985,shift,color,right,1,0,0.495878288481,left,0.6834562178949843,0.21309562071601884,6.4,0,0
1985,shift,shape,left,1,1,0.431769352898,left,0.6834562178949843,0.21309562071601884,6.4,0,0
1985,shift,color,left,1,0,0.671863796268,right,0.6834562178949843,0.21309562071601884,6.4,0,0
1985,shift,shape,left,1,1,1.10381541357,left,0.6834562178949843,0.21309562071601884,6.4,0,0
1985,shift,shape,left,0,1,0.991835780552,left,0.6834562178949843,0.21309562071601884,6.4,0,0
1985,shift,shape,right,0,1,0.53591486155,right,0.6834562178949843,0.21309562071601884,6.4,0,0
1985,shift,shape,left,0,1,0.663730404924,left,0.6834562178949843,0.21309562071601884,6.4,0,0
1985,shift,color,left,1,1,0.647875264563,left,0.6834562178949843,0.21309562071601884,6.4,0,0
1985,shift,shape,left,1,0,0.51183618919,right,0.6834562178949843,0.21309562071601884,6.4,0,0
1985,shift,shape,right,0,1,0.719823132015,right,0.6834562178949843,0.21309562071601884,6.4,0,0
1985,shift,color,left,1,1,0.903868716746,left,0.6834562178949843,0.21309562071601884,6.4,0,0
1985,shift,shape,left,1,1,1.05581821875,left,0.6834562178949843,0.21309562071601884,6.4,0,0
1985,shift,shape,left,0,1,0.79180615432300006,left,0.6834562178949843,0.21309562071601884,6.4,0,0
1985,shift,shape,right,0,1,0.719828540455,right,0.6834562178949843,0.21309562071601884,6.4,0,0
1985,shift,color,right,1,1,0.647804353914,right,0.6834562178949843,0.21309562071601884,6.4,0,0
1985,shift,color,left,0,1,1.20787679094,left,0.6834562178949843,0.21309562071601884,6.4,0,0
1985,shift,color,left,0,1,0.735837220399,left,0.6834562178949843,0.21309562071601884,6.4,0,0
1985,shift,color,right,0,1,0.415812954534,right,0.6834562178949843,0.21309562071601884,6.4,0,0
1985,shift,shape,right,1,1,0.479835054619,right,0.6834562178949843,0.21309562071601884,6.4,0,0
1985,shift,shape,right,0,1,0.503831398514,right,0.6834562178949843,0.21309562071601884,6.4,0,0
1985,shift,color,right,1,1,0.551792537075,right,0.6834562178949843,0.21309562071601884,6.4,0,0
1985,shift,color,right,0,1,0.375828663046,right,0.6834562178949843,0.21309562071601884,6.4,0,0
1985,shift,shape,left,1,1,1.00781501455,left,0.6834562178949843,0.21309562071601884,6.4,0,0
1985,shift,color,left,1,0,0.471829362537,right,0.6834562178949843,0.21309562071601884,6.4,0,0
1985,shift,color,left,0,1,0.631826321793,left,0.6834562178949843,0.21309562071601884,6.4,0,0
1985,shift,shape,left,1,1,0.911828136624,left,0.6834562178949843,0.21309562071601884,6.4,0,0
1985,shift,shape,right,0,1,0.767853077943,right,0.6834562178949843,0.21309562071601884,6.4,0,0
1985,shift,color,left,1,1,0.495859659412,left,0.6834562178949843,0.21309562071601884,6.4,0,0
1985,shift,color,left,0,1,1.14381923554,left,0.6834562178949843,0.21309562071601884,6.4,0,0
1985,shift,color,right,0,1,0.45579273899,right,0.6834562178949843,0.21309562071601884,6.4,0,0
1985,shift,shape,left,1,1,0.911816718808,left,0.6834562178949843,0.21309562071601884,6.4,0,0
1985,shift,shape,right,0,1,0.463843501399,right,0.6834562178949843,0.21309562071601884,6.4,0,0
1985,shift,shape,right,0,1,0.423848092564,right,0.6834562178949843,0.21309562071601884,6.4,0,0
1985,shift,shape,right,0,1,0.591834518583,right,0.6834562178949843,0.21309562071601884,6.4,0,0
1985,shift,color,left,1,0,0.527801000681,right,0.6834562178949843,0.21309562071601884,6.4,0,0
1985,shift,shape,right,1,1,0.903791195782,right,0.6834562178949843,0.21309562071601884,6.4,0,0
1985,shift,color,left,1,1,0.567915395183,left,0.6834562178949843,0.21309562071601884,6.4,0,0
1985,shift,color,right,0,1,0.47981131758,right,0.6834562178949843,0.21309562071601884,6.4,0,0
1985,shift,shape,left,1,1,0.639907431556,left,0.6834562178949843,0.21309562071601884,6.4,0,0
1985,shift,color,right,1,1,0.69576128591,right,0.6834562178949843,0.21309562071601884,6.4,0,0
1985,shift,color,right,0,1,0.663835569022,right,0.6834562178949843,0.21309562071601884,6.4,0,0
1985,shift,color,right,0,1,0.527794690836,right,0.6834562178949843,0.21309562071601884,6.4,0,0
1985,shift,shape,left,1,1,0.679852061156,left,0.6834562178949843,0.21309562071601884,6.4,0,0
1985,shift,shape,right,0,1,0.799839189071,right,0.6834562178949843,0.21309562071601884,6.4,0,0
1985,shift,color,left,1,1,0.703833982546,left,0.6834562178949843,0.21309562071601884,6.4,0,0
1985,shift,color,right,0,1,1.01584203992,right,0.6834562178949843,0.21309562071601884,6.4,0,0
1985,shift,color,left,0,1,1.01585015258,left,0.6834562178949843,0.21309562071601884,6.4,0,0
1985,shift,color,left,0,1,0.999804214496,left,0.6834562178949843,0.21309562071601884,6.4,0,0
1985,shift,shape,left,1,0,0.855808423464,right,0.6834562178949843,0.21309562071601884,6.4,0,0
1985,shift,color,right,1,1,0.85586190692,right,0.6834562178949843,0.21309562071601884,6.4,0,0
1985,shift,color,right,0,1,0.951849385782,right,0.6834562178949843,0.21309562071601884,6.4,0,0
1985,shift,shape,right,1,1,0.62386780332,right,0.6834562178949843,0.21309562071601884,6.4,0,0
1992,shape,shape,right,0,1,0.743038772258,right,0.5997927963685,0.1504642688610419,2,0,0
1992,shape,shape,right,0,1,0.951765182038,right,0.5997927963685,0.1504642688610419,2,0,0
1992,shape,shape,left,0,1,0.68791377252100006,left,0.5997927963685,0.1504642688610419,2,0,0
1992,shape,shape,left,0,1,0.791808245298,left,0.5997927963685,0.1504642688610419,2,0,0
1992,shape,shape,left,0,1,0.431836705751,left,0.5997927963685,0.1504642688610419,2,0,0
1992,shape,shape,left,0,1,0.439827386395,left,0.5997927963685,0.1504642688610419,2,0,0
1992,shape,shape,right,0,1,0.463825569156,right,0.5997927963685,0.1504642688610419,2,0,0
1992,shape,shape,right,0,1,0.495859202488,right,0.5997927963685,0.1504642688610419,2,0,0
1992,shape,shape,right,0,1,0.575798760083,right,0.5997927963685,0.1504642688610419,2,0,0
1992,shape,shape,right,0,1,0.743845832806,right,0.5997927963685,0.1504642688610419,2,0,0
1992,shape,shape,left,0,1,0.487853798848,left,0.5997927963685,0.1504642688610419,2,0,0
1992,shape,shape,right,0,1,0.527820122249,right,0.5997927963685,0.1504642688610419,2,0,0
1992,shape,shape,left,0,1,0.599864548438,left,0.5997927963685,0.1504642688610419,2,0,0
1992,shape,shape,right,0,1,0.607788524897,right,0.5997927963685,0.1504642688610419,2,0,0
1992,shape,shape,left,0,1,0.567795760198,left,0.5997927963685,0.1504642688610419,2,0,0
1992,shape,shape,left,0,1,0.871831934298,left,0.5997927963685,0.1504642688610419,2,0,0
1992,shape,shape,left,0,1,0.447998348621,left,0.5997927963685,0.1504642688610419,2,0,0
1992,shape,shape,right,0,1,0.551682192416,right,0.5997927963685,0.1504642688610419,2,0,0
1992,shape,shape,left,0,1,0.49587122126,left,0.5997927963685,0.1504642688610419,2,0,0
1992,shape,shape,right,0,1,0.511830047351,right,0.5997927963685,0.1504642688610419,2,0,0
1992,color,color,right,0,1,0.983756148729,right,0.6778314499415,0.25742879383675144,2,0,0
1992,color,color,right,0,1,0.711845551567,right,0.6778314499415,0.25742879383675144,2,0,0
1992,color,color,right,0,1,0.751840419551,right,0.6778314499415,0.25742879383675144,2,0,0
1992,color,color,right,0,1,0.471780193484,right,0.6778314499415,0.25742879383675144,2,0,0
1992,color,color,left,0,1,1.42388238189,left,0.6778314499415,0.25742879383675144,2,0,0
1992,color,color,left,0,1,0.503796700066,left,0.6778314499415,0.25742879383675144,2,0,0
1992,color,color,left,0,1,0.471896475104,left,0.6778314499415,0.25742879383675144,2,0,0
1992,color,color,right,0,1,0.57575699485,right,0.6778314499415,0.25742879383675144,2,0,0
1992,color,color,right,0,1,0.623782205427,right,0.6778314499415,0.25742879383675144,2,0,0
1992,color,color,right,0,1,0.59192735133,right,0.6778314499415,0.25742879383675144,2,0,0
1992,color,color,right,0,1,0.583843825671,right,0.6778314499415,0.25742879383675144,2,0,0
1992,color,color,left,0,1,1.03179788512,left,0.6778314499415,0.25742879383675144,2,0,0
1992,color,color,right,0,1,0.575798459614,right,0.6778314499415,0.25742879383675144,2,0,0
1992,color,color,left,0,1,0.711841344997,left,0.6778314499415,0.25742879383675144,2,0,0
1992,color,color,left,0,1,0.455798231257,left,0.6778314499415,0.25742879383675144,2,0,0
1992,color,color,left,0,1,0.471875141784,left,0.6778314499415,0.25742879383675144,2,0,0
1992,color,color,left,0,1,0.479831869397,left,0.6778314499415,0.25742879383675144,2,0,0
1992,color,color,right,0,1,1.03182102125,right,0.6778314499415,0.25742879383675144,2,0,0
1992,color,color,left,0,1,0.679902960434,left,0.6778314499415,0.25742879383675144,2,0,0
1992,color,color,left,0,1,0.423853837308,left,0.6778314499415,0.25742879383675144,2,0,0
1992,shift,color,right,0,1,0.447583100044,right,0.95594837670675,0.5844778372268126,6.4,0,0
1992,shift,color,left,0,1,0.647779186311,left,0.95594837670675,0.5844778372268126,6.4,0,0
1992,shift,color,left,0,1,0.519914474417,left,0.95594837670675,0.5844778372268126,6.4,0,0
1992,shift,color,right,0,1,0.623874149033,right,0.95594837670675,0.5844778372268126,6.4,0,0
1992,shift,shape,right,1,0,0.527778957954,left,0.95594837670675,0.5844778372268126,6.4,0,0
1992,shift,shape,left,0,0,0.50382494418,right,0.95594837670675,0.5844778372268126,6.4,0,0
1992,shift,shape,left,0,0,0.463830677135,right,0.95594837670675,0.5844778372268126,6.4,0,0
1992,shift,shape,right,0,0,0.535823422604,left,0.95594837670675,0.5844778372268126,6.4,0,0
1992,shift,color,right,1,1,0.415888396086,right,0.95594837670675,0.5844778372268126,6.4,0,0
1992,shift,shape,right,1,0,0.551891319051,left,0.95594837670675,0.5844778372268126,6.4,0,0
1992,shift,color,right,1,1,0.463596611548,right,0.95594837670675,0.5844778372268126,6.4,0,0
1992,shift,shape,left,1,0,0.487876033577,right,0.95594837670675,0.5844778372268126,6.4,0,0
1992,shift,shape,right,0,0,0.591777417148,left,0.95594837670675,0.5844778372268126,6.4,0,0
1992,shift,color,left,1,1,2.36787250006,left,0.95594837670675,0.5844778372268126,6.4,0,0
1992,shift,color,left,0,1,0.471854108933,left,0.95594837670675,0.5844778372268126,6.4,0,0
1992,shift,shape,left,1,1,0.80780523099,left,0.95594837670675,0.5844778372268126,6.4,0,0
1992,shift,shape,left,0,1,0.63184650105,left,0.95594837670675,0.5844778372268126,6.4,0,0
1992,shift,shape,right,0,1,0.703804692549,right,0.95594837670675,0.5844778372268126,6.4,0,0
1992,shift,shape,left,0,1,1.30385030379,left,0.95594837670675,0.5844778372268126,6.4,0,0
1992,shift,color,left,1,1,0.623828477699,left,0.95594837670675,0.5844778372268126,6.4,0,0
1992,shift,shape,left,1,1,0.567842933878,left,0.95594837670675,0.5844778372268126,6.4,0,0
1992,shift,shape,right,0,1,0.687838054257,right,0.95594837670675,0.5844778372268126,6.4,0,0
1992,shift,color,left,1,1,0.471812644169,left,0.95594837670675,0.5844778372268126,6.4,0,0
1992,shift,shape,right,1,1,0.42384031619,right,0.95594837670675,0.5844778372268126,6.4,0,0
1992,shift,shape,right,0,1,0.487783188562,right,0.95594837670675,0.5844778372268126,6.4,0,0
1992,shift,color,right,1,1,0.647813139342,right,0.95594837670675,0.5844778372268126,6.4,0,0
1992,shift,color,right,0,1,0.727861466825,right,0.95594837670675,0.5844778372268126,6.4,0,0
1992,shift,shape,right,1,1,0.527838751346,right,0.95594837670675,0.5844778372268126,6.4,0,0
1992,shift,shape,left,0,1,1.55183573223,left,0.95594837670675,0.5844778372268126,6.4,0,0
1992,shift,color,right,1,1,0.999833359725,right,0.95594837670675,0.5844778372268126,6.4,0,0
1992,shift,color,right,0,1,2.46375315605,right,0.95594837670675,0.5844778372268126,6.4,0,0
1992,shift,shape,left,1,1,0.727787551376,left,0.95594837670675,0.5844778372268126,6.4,0,0
1992,shift,shape,left,0,1,1.54388982151,left,0.95594837670675,0.5844778372268126,6.4,0,0
1992,shift,shape,right,0,1,0.575796356329,right,0.95594837670675,0.5844778372268126,6.4,0,0
1992,shift,color,left,1,1,0.751883086192,left,0.95594837670675,0.5844778372268126,6.4,0,0
1992,shift,color,right,0,1,0.407834616888,right,0.95594837670675,0.5844778372268126,6.4,0,0
1992,shift,color,left,0,1,0.615782811173,left,0.95594837670675,0.5844778372268126,6.4,0,0
1992,shift,shape,left,1,1,0.871858676066,left,0.95594837670675,0.5844778372268126,6.4,0,0
1992,shift,shape,right,0,1,0.51986159182,right,0.95594837670675,0.5844778372268126,6.4,0,0
1992,shift,shape,right,0,1,0.703814307567,right,0.95594837670675,0.5844778372268126,6.4,0,0
1992,shift,color,left,1,1,1.05582791762,left,0.95594837670675,0.5844778372268126,6.4,0,0
1992,shift,color,right,0,1,0.759825992217,right,0.95594837670675,0.5844778372268126,6.4,0,0
1992,shift,shape,right,1,1,0.959861627877,right,0.95594837670675,0.5844778372268126,6.4,0,0
1992,shift,color,right,1,1,1.49581593491,right,0.95594837670675,0.5844778372268126,6.4,0,0
1992,shift,color,right,0,1,2.64781343981,right,0.95594837670675,0.5844778372268126,6.4,0,0
1992,shift,shape,left,1,1,0.719818204053,left,0.95594837670675,0.5844778372268126,6.4,0,0
1992,shift,shape,right,0,1,1.00785769293,right,0.95594837670675,0.5844778372268126,6.4,0,0
1992,shift,color,left,1,1,0.479803925752,left,0.95594837670675,0.5844778372268126,6.4,0,0
1992,shift,color,right,0,1,0.791842799268,right,0.95594837670675,0.5844778372268126,6.4,0,0
1992,shift,color,left,0,1,2.01583695574,left,0.95594837670675,0.5844778372268126,6.4,0,0
1992,shift,shape,left,1,1,1.02385497909,left,0.95594837670675,0.5844778372268126,6.4,0,0
1992,shift,color,left,1,1,1.01584897451,left,0.95594837670675,0.5844778372268126,6.4,0,0
1992,shift,shape,left,1,1,0.647831768439,left,0.95594837670675,0.5844778372268126,6.4,0,0
1992,shift,color,left,1,1,1.91990702278,left,0.95594837670675,0.5844778372268126,6.4,0,0
1992,shift,color,left,0,1,2.49560440452,left,0.95594837670675,0.5844778372268126,6.4,0,0
1992,shift,shape,left,1,1,1.77594496845,left,0.95594837670675,0.5844778372268126,6.4,0,0
1992,shift,color,right,1,1,0.815775479722,right,0.95594837670675,0.5844778372268126,6.4,0,0
1992,shift,color,right,0,1,1.94379252955,right,0.95594837670675,0.5844778372268126,6.4,0,0
1992,shift,shape,right,1,0,1.90376881651,left,0.95594837670675,0.5844778372268126,6.4,0,0
1992,shift,color,left,1,1,1.07186486573,left,0.95594837670675,0.5844778372268126,6.4,0,0
1992,shift,shape,right,1,1,0.983841181541,right,0.95594837670675,0.5844778372268126,6.4,0,0
1992,shift,shape,left,0,1,1.50384687844,left,0.95594837670675,0.5844778372268126,6.4,0,0
1992,shift,color,right,1,1,0.751858748179,right,0.95594837670675,0.5844778372268126,6.4,0,0
1992,shift,color,left,0,1,1.42378893594,left,0.95594837670675,0.5844778372268126,6.4,0,0
1995,color,color,left,0,1,0.430977779955,left,0.35378740736895,0.04076112178657873,2,0,0
1995,color,color,left,0,1,0.391761056765,left,0.35378740736895,0.04076112178657873,2,0,0
1995,color,color,left,0,1,0.295873016636,left,0.35378740736895,0.04076112178657873,2,0,0
1995,color,color,right,0,1,0.359840642813,right,0.35378740736895,0.04076112178657873,2,0,0
1995,color,color,left,0,1,0.335910022502,left,0.35378740736895,0.04076112178657873,2,0,0
1995,color,color,left,0,1,0.375768248811,left,0.35378740736895,0.04076112178657873,2,0,0
1995,color,color,left,0,1,0.383782380508,left,0.35378740736895,0.04076112178657873,2,0,0
1995,color,color,right,0,1,0.351868276424,right,0.35378740736895,0.04076112178657873,2,0,0
1995,color,color,right,0,1,0.407812756808,right,0.35378740736895,0.04076112178657873,2,0,0
1995,color,color,left,0,1,0.303805120066,left,0.35378740736895,0.04076112178657873,2,0,0
1995,color,color,right,0,1,0.303833364232,right,0.35378740736895,0.04076112178657873,2,0,0
1995,color,color,left,0,1,0.28787601172,left,0.35378740736895,0.04076112178657873,2,0,0
1995,color,color,right,0,1,0.35179886789,right,0.35378740736895,0.04076112178657873,2,0,0
1995,color,color,right,0,1,0.35183642662,right,0.35378740736895,0.04076112178657873,2,0,0
1995,color,color,right,0,1,0.375873112786,right,0.35378740736895,0.04076112178657873,2,0,0
1995,color,color,left,0,1,0.407754165188,left,0.35378740736895,0.04076112178657873,2,0,0
1995,color,color,left,0,1,0.375910371047,left,0.35378740736895,0.04076112178657873,2,0,0
1995,color,color,right,0,1,0.303847185844,right,0.35378740736895,0.04076112178657873,2,0,0
1995,color,color,right,0,1,0.343800961564,right,0.35378740736895,0.04076112178657873,2,0,0
1995,color,color,right,0,1,0.3358183792,right,0.35378740736895,0.04076112178657873,2,0,0
1995,shape,shape,left,0,1,0.407797432846,left,0.40582115253629997,0.06281818550505151,2,0,0
1995,shape,shape,left,0,1,0.447890626573,left,0.40582115253629997,0.06281818550505151,2,0,0
1995,shape,shape,right,0,1,0.351718041502,right,0.40582115253629997,0.06281818550505151,2,0,0
1995,shape,shape,left,0,1,0.375843366272,left,0.40582115253629997,0.06281818550505151,2,0,0
1995,shape,shape,right,0,0,0.351774529832,left,0.40582115253629997,0.06281818550505151,2,0,0
1995,shape,shape,right,0,1,0.431698607112,right,0.40582115253629997,0.06281818550505151,2,0,0
1995,shape,shape,left,0,1,0.351897121529,left,0.40582115253629997,0.06281818550505151,2,0,0
1995,shape,shape,right,0,1,0.5278381405,right,0.40582115253629997,0.06281818550505151,2,0,0
1995,shape,shape,left,0,1,0.375807009421,left,0.40582115253629997,0.06281818550505151,2,0,0
1995,shape,shape,right,0,1,0.311878143854,right,0.40582115253629997,0.06281818550505151,2,0,0
1995,shape,shape,left,0,1,0.343799459214,left,0.40582115253629997,0.06281818550505151,2,0,0
1995,shape,shape,right,0,1,0.439878898634,right,0.40582115253629997,0.06281818550505151,2,0,0
1995,shape,shape,left,0,1,0.359873394026,left,0.40582115253629997,0.06281818550505151,2,0,0
1995,shape,shape,left,0,1,0.535798488096,left,0.40582115253629997,0.06281818550505151,2,0,0
1995,shape,shape,left,0,1,0.431804372497,left,0.40582115253629997,0.06281818550505151,2,0,0
1995,shape,shape,right,0,1,0.367861084378,right,0.40582115253629997,0.06281818550505151,2,0,0
1995,shape,shape,right,0,1,0.471724195124,right,0.40582115253629997,0.06281818550505151,2,0,0
1995,shape,shape,right,0,1,0.39182806154,right,0.40582115253629997,0.06281818550505151,2,0,0
1995,shape,shape,right,0,1,0.359843347042,right,0.40582115253629997,0.06281818550505151,2,0,0
1995,shape,shape,left,0,1,0.479868730734,left,0.40582115253629997,0.06281818550505151,2,0,0
1995,shift,shape,right,0,1,0.383840671658,right,0.5113306699560938,0.17720280833071436,6.4,0,0
1995,shift,shape,left,0,1,0.455807406041,left,0.5113306699560938,0.17720280833071436,6.4,0,0
1995,shift,shape,right,0,1,0.479889763623,right,0.5113306699560938,0.17720280833071436,6.4,0,0
1995,shift,shape,left,0,1,0.423810071809,left,0.5113306699560938,0.17720280833071436,6.4,0,0
1995,shift,color,left,1,1,0.535811107829,left,0.5113306699560938,0.17720280833071436,6.4,0,0
1995,shift,shape,left,1,1,0.431801367799,left,0.5113306699560938,0.17720280833071436,6.4,0,0
1995,shift,color,right,1,1,0.303868218734,right,0.5113306699560938,0.17720280833071436,6.4,0,0
1995,shift,color,left,0,1,0.391822653083,left,0.5113306699560938,0.17720280833071436,6.4,0,0
1995,shift,shape,right,1,0,0.35187518723,left,0.5113306699560938,0.17720280833071436,6.4,0,0
1995,shift,shape,left,0,1,0.471812533258,left,0.5113306699560938,0.17720280833071436,6.4,0,0
1995,shift,color,left,1,1,0.335864351086,left,0.5113306699560938,0.17720280833071436,6.4,0,0
