subject_id,trial_congruent_fac,resp_corr,resp_rt,resp_value,log_rt,mean_log_rt,sd_log_rt,exclude_trial,exclude_part
1903,congruent,1,0.84131102909,left,-0.1727938549308877,-0.06895687980472874,0.16290539181675268,0,0
1903,incongruent,1,1.1058561647,right,0.10061984464290859,0.010727213122411532,0.14266951696757754,0,0
1903,incongruent,1,1.15182628362,left,0.14134875543416964,0.010727213122411532,0.14266951696757754,0,0
1903,congruent,1,0.710728335406,right,-0.3414650102296974,-0.06895687980472874,0.16290539181675268,0,0
1903,incongruent,1,0.956794614146,left,-0.044166524829622855,0.010727213122411532,0.14266951696757754,0,0
1903,congruent,1,0.96581809643,left,-0.03477976847449968,-0.06895687980472874,0.16290539181675268,0,0
1903,congruent,1,1.13368283713,right,0.1254714811158501,-0.06895687980472874,0.16290539181675268,0,0
1903,incongruent,1,0.989884639584,right,-0.010166868315872397,0.010727213122411532,0.14266951696757754,0,0
1903,congruent,1,0.862870572809,left,-0.14749057271597374,-0.06895687980472874,0.16290539181675268,0,0
1903,incongruent,1,0.929874575061,right,-0.07270556745581465,0.010727213122411532,0.14266951696757754,0,0
1903,congruent,1,0.972822053011,left,-0.027554098402392146,-0.06895687980472874,0.16290539181675268,0,0
1903,congruent,1,1.02345353812,right,0.02318272999355735,-0.06895687980472874,0.16290539181675268,0,0
1903,incongruent,1,1.08488744717,left,0.08147624628435282,0.010727213122411532,0.14266951696757754,0,0
1903,incongruent,1,1.00165791019,left,0.0016565373740286128,0.010727213122411532,0.14266951696757754,0,0
1903,congruent,1,0.780831797835,right,-0.24739552002626258,-0.06895687980472874,0.16290539181675268,0,0
1903,incongruent,1,1.18875610599,right,0.17290747134376663,0.010727213122411532,0.14266951696757754,0,0
1903,incongruent,1,0.863864258144,right,-0.1463396311505646,0.010727213122411532,0.14266951696757754,0,0
1903,congruent,1,0.710887762062,right,-0.34124072090580426,-0.06895687980472874,0.16290539181675268,0,0
1903,incongruent,1,0.971875644732,right,-0.028527420224918856,0.010727213122411532,0.14266951696757754,0,0
1903,congruent,1,0.916752012394,right,-0.08691827689376005,-0.06895687980472874,0.16290539181675268,0,0
1903,congruent,1,0.843837994715,left,-0.16979475220063228,-0.06895687980472874,0.16290539181675268,0,0
1903,incongruent,1,1.14465795345,left,0.13510586176597203,0.010727213122411532,0.14266951696757754,0,0
1903,incongruent,1,0.889753666177,left,-0.11681063414289217,0.010727213122411532,0.14266951696757754,0,0
1903,congruent,1,0.907687856169,left,-0.09685473022253656,-0.06895687980472874,0.16290539181675268,0,0
1903,congruent,1,0.984327932296,right,-0.015796172921716336,-0.06895687980472874,0.16290539181675268,0,0
1903,incongruent,1,1.1198557176,left,0.11319985343710555,0.010727213122411532,0.14266951696757754,0,0
1903,incongruent,1,0.905867794068,right,-0.0988619062491569,0.010727213122411532,0.14266951696757754,0,0
1903,congruent,1,0.808813611023,left,-0.21218678275402375,-0.06895687980472874,0.16290539181675268,0,0
1903,congruent,1,0.850648768706,left,-0.16175596332932227,-0.06895687980472874,0.16290539181675268,0,0
1903,congruent,1,0.853788494186,right,-0.15807178075516798,-0.06895687980472874,0.16290539181675268,0,0
1903,incongruent,1,0.867756569914,left,-0.14184405306291037,0.010727213122411532,0.14266951696757754,0,0
1903,incongruent,1,0.932778561869,right,-0.06958744620897445,0.010727213122411532,0.14266951696757754,0,0
1903,incongruent,1,0.872854227274,right,-0.13598671615267452,0.010727213122411532,0.14266951696757754,0,0
1903,incongruent,1,0.881815976318,left,-0.12577188837484152,0.010727213122411532,0.14266951696757754,0,0
1903,incongruent,1,0.813807921335,right,-0.20603090970055377,0.010727213122411532,0.14266951696757754,0,0
1903,incongruent,1,0.908795133357,left,-0.09563558605049499,0.010727213122411532,0.14266951696757754,0,0
1903,congruent,1,0.952773374566,right,-0.04837820574165856,-0.06895687980472874,0.16290539181675268,0,0
1903,congruent,1,1.28080288306,left,0.24748713368159458,-0.06895687980472874,0.16290539181675268,0,0
1903,congruent,1,1.18677279286,left,0.17123768438240322,-0.06895687980472874,0.16290539181675268,0,0
1903,congruent,1,1.16951508627,right,0.15658920671947682,-0.06895687980472874,0.16290539181675268,0,0
1903,congruent,1,0.949664073416,left,-0.051646963851749494,-0.06895687980472874,0.16290539181675268,0,0
1903,congruent,1,0.892828394117,right,-0.11336088441434888,-0.06895687980472874,0.16290539181675268,0,0
1903,congruent,1,0.834644283299,right,-0.18074965292362932,-0.06895687980472874,0.16290539181675268,0,0
1903,congruent,1,1.2577197516,left,0.22930036048769123,-0.06895687980472874,0.16290539181675268,0,0
1903,incongruent,1,1.37285408305,left,0.31689184513668295,0.010727213122411532,0.14266951696757754,0,0
1903,incongruent,1,1.35279974857,left,0.30217633274325706,0.010727213122411532,0.14266951696757754,0,0
1903,incongruent,1,1.11579915484,right,0.10957087898143274,0.010727213122411532,0.14266951696757754,0,0
1903,incongruent,1,1.07781370237,right,0.07493463971349215,0.010727213122411532,0.14266951696757754,0,0
1912,incongruent,1,0.715646996538,right,-0.33456825519157113,-0.33500105563370153,0.14981455804310845,0,0
1912,incongruent,1,0.86465446801,right,-0.14542531080321341,-0.33500105563370153,0.14981455804310845,0,0
1912,congruent,1,0.682816065257,right,-0.38152975984274295,-0.49448700382506217,0.22406993897174468,0,0
1912,incongruent,1,0.834621469259,left,-0.1807769871452371,-0.33500105563370153,0.14981455804310845,0,0
1912,congruent,1,0.678664890692,left,-0.3876278068418036,-0.49448700382506217,0.22406993897174468,0,0
1912,incongruent,1,0.786613145055,left,-0.2400187078921749,-0.33500105563370153,0.14981455804310845,0,0
1912,congruent,1,0.565632959209,right,-0.5698098930972257,-0.49448700382506217,0.22406993897174468,0,0
1912,congruent,1,0.680761600973,left,-0.3845431061147868,-0.49448700382506217,0.22406993897174468,0,0
1912,congruent,1,0.528847107351,right,-0.6370559109195453,-0.49448700382506217,0.22406993897174468,0,0
1912,incongruent,1,0.696595414957,left,-0.3615505031031928,-0.33500105563370153,0.14981455804310845,0,0
1912,incongruent,1,0.716670275104,right,-0.3331394115123767,-0.33500105563370153,0.14981455804310845,0,0
1912,congruent,1,0.578387389179,left,-0.547511411316141,-0.49448700382506217,0.22406993897174468,0,0
1912,congruent,1,0.536777196536,left,-0.6221721745995599,-0.49448700382506217,0.22406993897174468,0,0
1912,congruent,1,0.609605938597,right,-0.49494253286417256,-0.49448700382506217,0.22406993897174468,0,0
1912,incongruent,1,0.588715924818,right,-0.5298115124933365,-0.33500105563370153,0.14981455804310845,0,0
1912,incongruent,1,0.858646117365,left,-0.1523984123525086,-0.33500105563370153,0.14981455804310845,0,0
1912,congruent,1,0.590712033138,left,-0.5264266338962401,-0.49448700382506217,0.22406993897174468,0,0
1912,incongruent,1,0.661794380982,right,-0.412800374038376,-0.33500105563370153,0.14981455804310845,0,0
1912,congruent,1,0.554772838528,left,-0.5891965489713397,-0.49448700382506217,0.22406993897174468,0,0
1912,congruent,1,0.550791224851,right,-0.5963994438976119,-0.49448700382506217,0.22406993897174468,0,0
1912,congruent,1,0.538781816554,right,-0.6184445830592071,-0.49448700382506217,0.22406993897174468,0,0
1912,incongruent,1,0.853838530753,left,-0.1580131771300396,-0.33500105563370153,0.14981455804310845,0,0
1912,incongruent,1,0.808827829235,left,-0.21216920381267557,-0.33500105563370153,0.14981455804310845,0,0
1912,incongruent,1,0.737829300333,right,-0.30404278149750746,-0.33500105563370153,0.14981455804310845,0,0
1912,congruent,1,0.542823283734,right,-0.6109714563371389,-0.49448700382506217,0.22406993897174468,0,0
1912,congruent,1,0.743761759621,left,-0.29603451099216804,-0.49448700382506217,0.22406993897174468,0,0
1912,incongruent,1,0.688736500962,left,-0.37289651803630175,-0.33500105563370153,0.14981455804310845,0,0
1912,incongruent,1,0.70671344895,left,-0.34713000083106127,-0.33500105563370153,0.14981455804310845,0,0
1912,congruent,1,1.48061357533,left,0.3924565797880156,-0.49448700382506217,0.22406993897174468,0,0
1912,incongruent,1,0.698808156903,right,-0.3583790280613974,-0.33500105563370153,0.14981455804310845,0,0
1912,incongruent,1,0.786741839702,right,-0.23985511525283568,-0.33500105563370153,0.14981455804310845,0,0
1912,congruent,1,0.589889848521,right,-0.5278194569345389,-0.49448700382506217,0.22406993897174468,0,0
1912,congruent,1,0.509496156696,right,-0.6743329696333823,-0.49448700382506217,0.22406993897174468,0,0
1912,incongruent,1,0.658638206606,right,-0.4175808988700813,-0.33500105563370153,0.14981455804310845,0,0
1912,incongruent,1,0.586722210637,left,-0.5332038068774955,-0.33500105563370153,0.14981455804310845,0,0
1912,congruent,1,0.570715581081,left,-0.5608643001107401,-0.49448700382506217,0.22406993897174468,0,0
1912,incongruent,0,0.440635521612,left,-0.8195372268649542,-0.33500105563370153,0.14981455804310845,0,0
1912,congruent,1,0.808734801507,left,-0.2122842259160978,-0.49448700382506217,0.22406993897174468,0,0
1912,incongruent,1,0.818798988981,left,-0.1999166599527263,-0.33500105563370153,0.14981455804310845,0,0
1912,congruent,1,0.588810036639,right,-0.529651665790536,-0.49448700382506217,0.22406993897174468,0,0
1912,congruent,1,0.545566853539,left,-0.6059299266095981,-0.49448700382506217,0.22406993897174468,0,0
1912,incongruent,1,0.719643922736,right,-0.32899874105864546,-0.33500105563370153,0.14981455804310845,0,0
1912,incongruent,1,0.761758531378,right,-0.2721256614704691,-0.33500105563370153,0.14981455804310845,0,0
1912,congruent,1,0.509613707534,right,-0.6741022764713449,-0.49448700382506217,0.22406993897174468,0,0
1912,incongruent,1,0.690846357379,left,-0.36983782815891597,-0.33500105563370153,0.14981455804310845,0,0
1912,incongruent,1,0.659779749324,left,-0.4158492128017432,-0.33500105563370153,0.14981455804310845,0,0
1912,congruent,1,0.584576970944,left,-0.5368668199238795,-0.49448700382506217,0.22406993897174468,0,0
1912,congruent,1,0.508837148593,right,-0.6756272574497069,-0.49448700382506217,0.22406993897174468,0,0
1917,incongruent,1,0.764127448562,left,-0.269020686238578,-0.22241119868702228,0.20319379733056525,0,0
1917,congruent,1,0.612357376987,right,-0.4904392175767089,-0.3832453552473552,0.24165055525962795,0,0
1917,incongruent,1,0.75449250885,right,-0.28170992945175327,-0.22241119868702228,0.20319379733056525,0,0
1917,congruent,1,0.502698779824,left,-0.6877641355314309,-0.3832453552473552,0.24165055525962795,0,0
1917,incongruent,1,0.825542175224,right,-0.1917149264073455,-0.22241119868702228,0.20319379733056525,0,0
1917,incongruent,1,0.743457899593,left,-0.29644313930789207,-0.22241119868702228,0.20319379733056525,0,0
1917,congruent,1,0.557732360273,left,-0.583876072753221,-0.3832453552473552,0.24165055525962795,0,0
1917,congruent,1,0.522766224366,right,-0.6486209045868693,-0.3832453552473552,0.24165055525962795,0,0
1917,congruent,1,0.687389556048,right,-0.37485410809468467,-0.3832453552473552,0.24165055525962795,0,0
1917,incongruent,1,0.532483413043,left,-0.6302035310987273,-0.22241119868702228,0.20319379733056525,0,0
1917,incongruent,1,0.746616535367,left,-0.292203565188643,-0.22241119868702228,0.20319379733056525,0,0
1917,congruent,1,0.527469471267,right,-0.6396642896820574,-0.3832453552473552,0.24165055525962795,0,0
1917,incongruent,1,0.835551246993,right,-0.17966359591210096,-0.22241119868702228,0.20319379733056525,0,0
1917,congruent,1,0.576260462416,left,-0.551195528799655,-0.3832453552473552,0.24165055525962795,0,0
1917,incongruent,1,0.746442304035,right,-0.2924369536234359,-0.22241119868702228,0.20319379733056525,0,0
1917,congruent,1,0.727379907377,left,-0.31830636933344086,-0.3832453552473552,0.24165055525962795,0,0
1917,incongruent,1,0.631504150232,right,-0.45965076519101744,-0.22241119868702228,0.20319379733056525,0,0
1917,congruent,1,0.721679100287,right,-0.3261746983269707,-0.3832453552473552,0.24165055525962795,0,0
1917,incongruent,1,0.863375703211,left,-0.14690533708252534,-0.22241119868702228,0.20319379733056525,0,0
1917,congruent,1,0.770442231922,left,-0.26079060182570846,-0.3832453552473552,0.24165055525962795,0,0
1917,congruent,1,0.728538519113,left,-0.3167147801901233,-0.3832453552473552,0.24165055525962795,0,0
1917,incongruent,1,0.703506068428,left,-0.3516787764123033,-0.22241119868702228,0.20319379733056525,0,0
1917,incongruent,1,0.756490244513,right,-0.27906564139140233,-0.22241119868702228,0.20319379733056525,0,0
1917,congruent,1,0.740697385647,right,-0.3001631235397988,-0.3832453552473552,0.24165055525962795,0,0
1917,incongruent,1,0.548532617896,left,-0.6005085335855632,-0.22241119868702228,0.20319379733056525,0,0
1917,congruent,1,0.588259109103,right,-0.530587766406585,-0.3832453552473552,0.24165055525962795,0,0
1917,congruent,1,0.792290523769,right,-0.23282713149014095,-0.3832453552473552,0.24165055525962795,0,0
1917,incongruent,1,0.957671764028,right,-0.043250185996643674,-0.22241119868702228,0.20319379733056525,0,0
1917,congruent,1,0.687452529606,left,-0.3747624996711411,-0.3832453552473552,0.24165055525962795,0,0
1917,incongruent,1,0.734636354322,right,-0.3083796582259364,-0.22241119868702228,0.20319379733056525,0,0
1917,congruent,1,0.847588793637,left,-0.16535967396255877,-0.3832453552473552,0.24165055525962795,0,0
1917,incongruent,1,1.03668220594,left,0.036025427063422516,-0.22241119868702228,0.20319379733056525,0,0
1917,incongruent,1,0.707244907721,right,-0.34637826893808166,-0.22241119868702228,0.20319379733056525,0,0
1917,incongruent,1,0.689443126119,left,-0.3718710708376413,-0.22241119868702228,0.20319379733056525,0,0
1917,incongruent,1,0.816660012073,right,-0.20253241262671398,-0.22241119868702228,0.20319379733056525,0,0
1917,congruent,1,0.669495501524,left,-0.4012308330310639,-0.3832453552473552,0.24165055525962795,0,0
1917,incongruent,1,0.977683335702,left,-0.022569449003617823,-0.22241119868702228,0.20319379733056525,0,0
1917,congruent,1,0.791665574361,right,-0.23361623093698328,-0.3832453552473552,0.24165055525962795,0,0
1917,congruent,1,0.520395293809,right,-0.6531665757955166,-0.3832453552473552,0.24165055525962795,0,0
1917,congruent,1,0.842535274045,left,-0.17133974932940263,-0.3832453552473552,0.24165055525962795,0,0
1917,congruent,1,0.803428121884,right,-0.21886755407982295,-0.3832453552473552,0.24165055525962795,0,0
1917,incongruent,1,1.25867897529,right,0.23006273866425753,-0.22241119868702228,0.20319379733056525,0,0
1917,congruent,1,0.513523998033,left,-0.6664585164640547,-0.3832453552473552,0.24165055525962795,0,0
1917,incongruent,1,1.02262378749,left,0.022371665167120525,-0.22241119868702228,0.20319379733056525,0,0
1917,incongruent,1,1.04781787864,left,0.046709790873705866,-0.22241119868702228,0.20319379733056525,0,0
1917,congruent,1,1.52864791157,left,0.42438362676735003,-0.3832453552473552,0.24165055525962795,0,0
1917,congruent,1,0.621579293999,right,-0.47549179129593633,-0.3832453552473552,0.24165055525962795,0,0
1917,incongruent,1,0.898658697219,right,-0.10685196373711847,-0.22241119868702228,0.20319379733056525,0,0
1928,incongruent,1,0.681001051643,right,-0.3841914285709684,-0.3806098649169845,0.1255728136835891,0,0
1928,congruent,1,0.669577953052,right,-0.4011076858985112,-0.5064154378546035,0.07623833215792802,0,0
1928,incongruent,1,0.743819830986,right,-0.29595643612838085,-0.3806098649169845,0.1255728136835891,0,0
1928,congruent,1,0.605577953052,left,-0.5015719826536813,-0.5064154378546035,0.07623833215792802,0,0
1928,incongruent,1,0.783637746479,left,-0.24380842347594997,-0.3806098649169845,0.1255728136835891,0,0
1928,congruent,1,0.605611305164,left,-0.5015169093250794,-0.5064154378546035,0.07623833215792802,0,0
1928,incongruent,1,0.692652469484,left,-0.3672268926149878,-0.3806098649169845,0.1255728136835891,0,0
1928,congruent,1,0.653820131455,right,-0.4249229937084418,-0.5064154378546035,0.07623833215792802,0,0
1928,incongruent,1,0.578795192488,left,-0.546806590257921,-0.3806098649169845,0.1255728136835891,0,0
1928,incongruent,1,0.781692131455,right,-0.24629430974613295,-0.3806098649169845,0.1255728136835891,0,0
1928,incongruent,1,0.614850178404,right,-0.4863766532051476,-0.3806098649169845,0.1255728136835891,0,0
1928,incongruent,1,0.68774170892,left,-0.37434193461907644,-0.3806098649169845,0.1255728136835891,0,0
1928,congruent,1,0.638901558685,left,-0.4480048917383743,-0.5064154378546035,0.07623833215792802,0,0
1928,congruent,1,0.503646760563,left,-0.6858801285351088,-0.5064154378546035,0.07623833215792802,0,0
1928,congruent,1,0.587731492958,right,-0.5314850800066719,-0.5064154378546035,0.07623833215792802,0,0
1928,congruent,1,0.617857389671,right,-0.481497609204036,-0.5064154378546035,0.07623833215792802,0,0
1928,incongruent,1,0.685714666667,right,-0.37729367558558075,-0.3806098649169845,0.1255728136835891,0,0
1928,congruent,1,0.641710460094,left,-0.44361807376011025,-0.5064154378546035,0.07623833215792802,0,0
1928,congruent,1,0.661702347418,right,-0.41293945041412133,-0.5064154378546035,0.07623833215792802,0,0
1928,congruent,1,0.588470985916,right,-0.5302276552541866,-0.5064154378546035,0.07623833215792802,0,0
1928,congruent,1,0.642609502347,left,-0.44221804506610657,-0.5064154378546035,0.07623833215792802,0,0
1928,incongruent,1,0.696818929577,right,-0.36122968737053746,-0.3806098649169845,0.1255728136835891,0,0
1928,incongruent,1,0.707769352113,left,-0.34563701221594095,-0.3806098649169845,0.1255728136835891,0,0
1928,incongruent,1,0.702782873239,left,-0.35270729229026376,-0.3806098649169845,0.1255728136835891,0,0
1928,congruent,1,0.546661483568,right,-0.6039255281549989,-0.5064154378546035,0.07623833215792802,0,0
1928,congruent,1,0.58290276056300006,left,-0.539734898030027,-0.5064154378546035,0.07623833215792802,0,0
1928,incongruent,1,0.55866599061,right,-0.582203496734249,-0.3806098649169845,0.1255728136835891,0,0
1928,incongruent,1,0.860673201878,right,-0.1500404030757404,-0.3806098649169845,0.1255728136835891,0,0
1928,congruent,1,0.643717070423,right,-0.4404959810535081,-0.5064154378546035,0.07623833215792802,0,0
1928,congruent,1,0.663909971831,left,-0.40960872328999237,-0.5064154378546035,0.07623833215792802,0,0
1928,incongruent,1,0.658761239437,left,-0.4173941175081683,-0.3806098649169845,0.1255728136835891,0,0
1928,incongruent,1,0.661768150235,left,-0.41284001061977627,-0.3806098649169845,0.1255728136835891,0,0
1928,incongruent,1,0.559757633803,left,-0.5802513857168574,-0.3806098649169845,0.1255728136835891,0,0
1928,congruent,1,0.549725183099,left,-0.5983367927235487,-0.5064154378546035,0.07623833215792802,0,0
1928,incongruent,1,0.602580056338,right,-0.506534748854199,-0.3806098649169845,0.1255728136835891,0,0
1928,incongruent,1,0.807708056338,left,-0.21355460216491076,-0.3806098649169845,0.1255728136835891,0,0
1928,congruent,1,0.620861295775,right,-0.47664757823631365,-0.5064154378546035,0.07623833215792802,0,0
1928,congruent,1,0.591696338028,left,-0.5247617182184202,-0.5064154378546035,0.07623833215792802,0,0
1928,incongruent,1,0.748749821596,right,-0.2893503678216215,-0.3806098649169845,0.1255728136835891,0,0
1928,congruent,1,0.638527774648,right,-0.44859010461538307,-0.5064154378546035,0.07623833215792802,0,0
1928,incongruent,1,0.540593276995,left,-0.6150880814083888,-0.3806098649169845,0.1255728136835891,0,0
1928,congruent,1,0.539830046948,right,-0.6165009168351026,-0.5064154378546035,0.07623833215792802,0,0
1928,incongruent,1,0.75082313615,left,-0.28658515941425156,-0.3806098649169845,0.1255728136835891,0,0
1928,congruent,1,0.578764544601,left,-0.5468595428374298,-0.5064154378546035,0.07623833215792802,0,0
1928,congruent,1,0.582763042254,left,-0.5399746207864663,-0.5064154378546035,0.07623833215792802,0,0
1928,incongruent,1,0.785650366197,right,-0.24124341223905976,-0.3806098649169845,0.1255728136835891,0,0
1928,congruent,1,0.546870309859,right,-0.6035435981648631,-0.5064154378546035,0.07623833215792802,0,0
1928,incongruent,1,0.632749521127,right,-0.4576806363695171,-0.3806098649169845,0.1255728136835891,0,0
1966,incongruent,1,0.894137179655,left,-0.11189607077582223,-0.36557556641409045,0.15229025647135547,0,0
1966,congruent,1,0.625573229668,left,-0.46908688211802263,-0.5672163447322827,0.11784822115717941,0,0
1966,incongruent,1,0.615498263891,right,-0.48532315400986026,-0.36557556641409045,0.15229025647135547,0,0
1966,congruent,1,0.603253408218,left,-0.5054179247324916,-0.5672163447322827,0.11784822115717941,0,0
1966,congruent,1,0.545305047997,right,-0.6064099198089058,-0.5672163447322827,0.11784822115717941,0,0
1966,incongruent,1,0.683514448345,right,-0.3805074842778372,-0.36557556641409045,0.15229025647135547,0,0
1966,incongruent,1,0.620749626517,left,-0.476827456258158,-0.36557556641409045,0.15229025647135547,0,0
1966,congruent,1,0.564761116446,right,-0.5713524399924231,-0.5672163447322827,0.11784822115717941,0,0
1966,incongruent,1,0.710769212279,right,-0.3414074978223382,-0.36557556641409045,0.15229025647135547,0,0
1966,incongruent,1,0.852785045785,left,-0.15924776115465147,-0.36557556641409045,0.15229025647135547,0,0
1966,congruent,1,0.544785105879,right,-0.6073638632154773,-0.5672163447322827,0.11784822115717941,0,0
1966,congruent,1,0.58377298136,right,-0.5382431022771609,-0.5672163447322827,0.11784822115717941,0,0
1966,incongruent,1,0.634140766051,left,-0.45548432071797557,-0.36557556641409045,0.15229025647135547,0,0
1966,congruent,1,0.661879885774,left,-0.41267118093661925,-0.5672163447322827,0.11784822115717941,0,0
1966,incongruent,1,0.71079157918,right,-0.3413760297329871,-0.36557556641409045,0.15229025647135547,0,0
1966,congruent,1,0.533732283455,left,-0.6278609075803528,-0.5672163447322827,0.11784822115717941,0,0
1966,incongruent,1,0.616828935872,left,-0.48316354494104496,-0.36557556641409045,0.15229025647135547,0,0
1966,incongruent,1,0.788791028721,right,-0.23725384908369235,-0.36557556641409045,0.15229025647135547,0,0
1966,incongruent,1,0.697770308389,right,-0.3598653014514634,-0.36557556641409045,0.15229025647135547,0,0
1966,incongruent,1,0.672763609136,left,-0.39636126046638687,-0.36557556641409045,0.15229025647135547,0,0
1966,congruent,1,0.564745903107,right,-0.5713793780082789,-0.5672163447322827,0.11784822115717941,0,0
1966,congruent,1,0.602695796922,left,-0.5063426922655887,-0.5672163447322827,0.11784822115717941,0,0
1966,congruent,1,0.524634171962,right,-0.6450540745896168,-0.5672163447322827,0.11784822115717941,0,0
1966,congruent,1,0.657602810225,left,-0.4191541617927896,-0.5672163447322827,0.11784822115717941,0,0
1966,incongruent,1,0.775863554691,left,-0.25377860584286643,-0.36557556641409045,0.15229025647135547,0,0
1966,incongruent,1,0.671597175833,right,-0.3980965589201122,-0.36557556641409045,0.15229025647135547,0,0
1966,congruent,1,0.476817063746,right,-0.7406223758134883,-0.5672163447322827,0.11784822115717941,0,0
1966,congruent,1,0.540605014465,right,-0.6150663694428906,-0.5672163447322827,0.11784822115717941,0,0
1966,congruent,1,0.520752063921,left,-0.6524812354864516,-0.5672163447322827,0.11784822115717941,0,0
1966,congruent,1,0.547601678058,left,-0.6022071211861251,-0.5672163447322827,0.11784822115717941,0,0
1966,incongruent,1,0.645760070814,right,-0.437327251597018,-0.36557556641409045,0.15229025647135547,0,0
1966,incongruent,1,0.593831885274,left,-0.5211590211018562,-0.36557556641409045,0.15229025647135547,0,0
1966,incongruent,1,0.571626530438,right,-0.5592694196613396,-0.36557556641409045,0.15229025647135547,0,0
1966,incongruent,1,0.71079568719,left,-0.3413702502636613,-0.36557556641409045,0.15229025647135547,0,0
1966,congruent,1,0.525671653648,left,-0.6430784937670858,-0.5672163447322827,0.11784822115717941,0,0
1966,incongruent,1,0.786844964082,left,-0.2397240460548738,-0.36557556641409045,0.15229025647135547,0,0
1966,congruent,1,0.57356986682,right,-0.5558755245145917,-0.5672163447322827,0.11784822115717941,0,0
1966,congruent,1,0.765718019598,left,-0.26694129764382035,-0.5672163447322827,0.11784822115717941,0,0
1966,incongruent,1,1.03854053145,right,0.03781639241209723,-0.36557556641409045,0.15229025647135547,0,0
1966,congruent,1,0.559829445467,right,-0.5801231033073369,-0.5672163447322827,0.11784822115717941,0,0
1966,congruent,1,0.455761986604,right,-0.7857845649376292,-0.5672163447322827,0.11784822115717941,0,0
1966,congruent,1,0.467810383723,right,-0.7596922281502322,-0.5672163447322827,0.11784822115717941,0,0
1966,incongruent,1,0.527448602399,left,-0.6397038545895579,-0.36557556641409045,0.15229025647135547,0,0
1966,incongruent,1,0.74285024993,left,-0.2972608024513658,-0.36557556641409045,0.15229025647135547,0,0
1966,incongruent,1,0.604588680978,right,-0.5032069183171562,-0.36557556641409045,0.15229025647135547,0,0
1966,congruent,1,0.622867460786,left,-0.4734215263494664,-0.5672163447322827,0.11784822115717941,0,0
1966,incongruent,1,0.675690919711,right,-0.39201952685824304,-0.36557556641409045,0.15229025647135547,0,0
1966,congruent,1,0.632824652388,left,-0.45756190565793886,-0.5672163447322827,0.11784822115717941,0,0
1968,congruent,1,0.556881620997,right,-0.5854025912708412,-0.5748898883222966,0.1355003370831704,0,0
1968,congruent,1,0.568666268444,left,-0.5644615398731934,-0.5748898883222966,0.1355003370831704,0,0
1968,incongruent,1,0.610774288458,right,-0.49302780138614877,-0.46987138082654056,0.13088913178760278,0,0
1968,congruent,1,0.553463473116,right,-0.5915595215747362,-0.5748898883222966,0.1355003370831704,0,0
1968,incongruent,1,0.593566577447,left,-0.5216058935541029,-0.46987138082654056,0.13088913178760278,0,0
1968,incongruent,1,0.677595040329,right,-0.38920545513831717,-0.46987138082654056,0.13088913178760278,0,0
1968,congruent,1,0.498681957764,left,-0.6957867456207134,-0.5748898883222966,0.1355003370831704,0,0
1968,incongruent,1,0.589594605249,left,-0.5283200879979205,-0.46987138082654056,0.13088913178760278,0,0
1968,incongruent,1,0.573785170264,right,-0.5555002205510088,-0.46987138082654056,0.13088913178760278,0,0
1968,congruent,1,0.578460329002,right,-0.5473853103229848,-0.5748898883222966,0.1355003370831704,0,0
1968,congruent,1,0.490770798203,left,-0.7117780662793742,-0.5748898883222966,0.1355003370831704,0,0
1968,congruent,1,0.564743239134,right,-0.5713840951372894,-0.5748898883222966,0.1355003370831704,0,0
1968,incongruent,1,0.445613953086,left,-0.8083022778296824,-0.46987138082654056,0.13088913178760278,0,0
1968,incongruent,1,0.727654098225,left,-0.3179294835009586,-0.46987138082654056,0.13088913178760278,0,0
1968,incongruent,1,0.632754507945,right,-0.45767275521246753,-0.46987138082654056,0.13088913178760278,0,0
1968,congruent,1,0.586701175798,left,-0.5332396589650633,-0.5748898883222966,0.1355003370831704,0,0
1968,incongruent,1,0.624795455939,right,-0.47033095330801195,-0.46987138082654056,0.13088913178760278,0,0
1968,congruent,1,0.529680044373,left,-0.6354821445923283,-0.5748898883222966,0.1355003370831704,0,0
1968,congruent,1,0.466663571429,right,-0.7621466847210357,-0.5748898883222966,0.1355003370831704,0,0
1968,incongruent,1,0.59675849097,left,-0.5162427851756938,-0.46987138082654056,0.13088913178760278,0,0
1968,congruent,1,0.671733578436,right,-0.39789347773100775,-0.5748898883222966,0.1355003370831704,0,0
1968,congruent,1,0.713741888223,left,-0.33723388308805796,-0.5748898883222966,0.1355003370831704,0,0
1968,incongruent,1,0.576668616914,left,-0.550487498232349,-0.46987138082654056,0.13088913178760278,0,0
1968,incongruent,1,0.683798898118,right,-0.38009141318800344,-0.46987138082654056,0.13088913178760278,0,0
1968,incongruent,1,0.709431322871,right,-0.34329158358439066,-0.46987138082654056,0.13088913178760278,0,0
1968,incongruent,1,0.629530811953,left,-0.4627804799870875,-0.46987138082654056,0.13088913178760278,0,0
1968,congruent,1,0.588776947013,left,-0.5297078648254575,-0.5748898883222966,0.1355003370831704,0,0
1968,incongruent,1,0.692763473957,right,-0.3670666454722246,-0.46987138082654056,0.13088913178760278,0,0
1968,congruent,1,0.532781343484,left,-0.6296441763525151,-0.5748898883222966,0.1355003370831704,0,0
1968,congruent,1,0.434815200395,right,-0.8328341648360326,-0.5748898883222966,0.1355003370831704,0,0
1968,incongruent,1,0.576886918877,left,-0.5501090128298991,-0.46987138082654056,0.13088913178760278,0,0
1968,congruent,1,0.518531804704,right,-0.6567539133596288,-0.5748898883222966,0.1355003370831704,0,0
1968,congruent,1,0.503817380602,left,-0.6855414166471919,-0.5748898883222966,0.1355003370831704,0,0
1968,congruent,1,0.494200189656,right,-0.7048146016640425,-0.5748898883222966,0.1355003370831704,0,0
1968,incongruent,1,0.906461259256,right,-0.09820698631822723,-0.46987138082654056,0.13088913178760278,0,0
1968,congruent,1,0.75374554674,right,-0.28270043909749837,-0.5748898883222966,0.1355003370831704,0,0
1968,incongruent,1,0.651695630331,left,-0.4281776506977374,-0.46987138082654056,0.13088913178760278,0,0
1968,incongruent,1,0.527842516685,right,-0.6389573036195522,-0.46987138082654056,0.13088913178760278,0,0
1968,incongruent,1,0.606643814954,left,-0.49981345594709153,-0.46987138082654056,0.13088913178760278,0,0
1968,congruent,1,0.681563748226,left,-0.38336549116961743,-0.5748898883222966,0.1355003370831704,0,0
1968,congruent,1,0.554727706059,left,-0.5892779053424475,-0.5748898883222966,0.1355003370831704,0,0
1968,congruent,1,0.65675906066,right,-0.42043805430305164,-0.5748898883222966,0.1355003370831704,0,0
1968,congruent,1,0.594463437059,left,-0.5200960667459905,-0.5748898883222966,0.1355003370831704,0,0
1968,incongruent,1,0.694674436409,right,-0.3643119799897312,-0.46987138082654056,0.13088913178760278,0,0
1968,incongruent,1,0.606765839254,left,-0.4996123296415802,-0.46987138082654056,0.13088913178760278,0,0
1968,incongruent,1,0.595729929534,right,-0.517967852980774,-0.46987138082654056,0.13088913178760278,0,0
1968,incongruent,1,0.595769617959,left,-0.5179012336940135,-0.46987138082654056,0.13088913178760278,0,0
1968,congruent,1,0.53342889027,right,-0.6284295062150185,-0.5748898883222966,0.1355003370831704,0,0
1969,incongruent,1,0.584065572037,left,-0.5377420215716627,-0.5544357063011591,0.13035129859258715,0,0
1969,incongruent,1,0.675582614961,right,-0.3921798271193715,-0.5544357063011591,0.13035129859258715,0,0
1969,congruent,1,0.568762942268,right,-0.5642915533398386,-0.6329343538780126,0.10489556776838863,0,0
1969,congruent,1,0.498497461935,left,-0.696156780997418,-0.6329343538780126,0.10489556776838863,0,0
1969,incongruent,1,0.536808019889,right,-0.6221147532555681,-0.5544357063011591,0.13035129859258715,0,0
1969,incongruent,1,0.582465580931,left,-0.5404851838185496,-0.5544357063011591,0.13035129859258715,0,0
1969,congruent,1,0.517858241545,left,-0.6580537391467878,-0.6329343538780126,0.10489556776838863,0,0
1969,congruent,1,0.581601681547,right,-0.5419694615238847,-0.6329343538780126,0.10489556776838863,0,0
1969,incongruent,1,0.523786388496,left,-0.6466713333171887,-0.5544357063011591,0.13035129859258715,0,0
1969,incongruent,1,0.687721633736,left,-0.37437112505022613,-0.5544357063011591,0.13035129859258715,0,0
1969,incongruent,1,0.587531847652,right,-0.5318248256637037,-0.5544357063011591,0.13035129859258715,0,0
1969,congruent,1,0.547565413689,right,-0.6022733473707621,-0.6329343538780126,0.10489556776838863,0,0
1969,congruent,1,0.580811308226,right,-0.5433293455750022,-0.6329343538780126,0.10489556776838863,0,0
1969,incongruent,1,0.582900295241,right,-0.5397391274270729,-0.5544357063011591,0.13035129859258715,0,0
1969,congruent,1,0.511836925044,left,-0.6697492104498035,-0.6329343538780126,0.10489556776838863,0,0
1969,congruent,1,0.548800587478,left,-0.6000201320936294,-0.6329343538780126,0.10489556776838863,0,0
1969,congruent,1,0.498830076746,left,-0.6954897687864211,-0.6329343538780126,0.10489556776838863,0,0
1969,incongruent,1,0.513711744688,left,-0.6660929788385956,-0.5544357063011591,0.13035129859258715,0,0
1969,incongruent,1,0.719849979839,right,-0.32871245001699695,-0.5544357063011591,0.13035129859258715,0,0
1969,incongruent,1,0.537599585472,right,-0.620641260844923,-0.5544357063011591,0.13035129859258715,0,0
1969,congruent,1,0.527755654083,left,-0.6391218787478568,-0.6329343538780126,0.10489556776838863,0,0
1969,congruent,1,0.425391627,right,-0.8547450590613281,-0.6329343538780126,0.10489556776838863,0,0
1969,congruent,1,0.532895975693,right,-0.6294290414193053,-0.6329343538780126,0.10489556776838863,0,0
1969,incongruent,1,0.519820966514,left,-0.6542708218552368,-0.5544357063011591,0.13035129859258715,0,0
1969,congruent,1,0.510712561964,left,-0.6719483480904229,-0.6329343538780126,0.10489556776838863,0,0
1969,incongruent,1,0.584766475788,left,-0.5365426981336755,-0.5544357063011591,0.13035129859258715,0,0
1969,incongruent,1,0.515585326397,left,-0.6624524675986485,-0.5544357063011591,0.13035129859258715,0,0
1969,incongruent,1,0.639735428887,right,-0.44670058046266137,-0.5544357063011591,0.13035129859258715,0,0
1969,congruent,1,0.455808652076,left,-0.7856821801743192,-0.6329343538780126,0.10489556776838863,0,0
1969,congruent,1,0.602658977455,right,-0.5064037854271942,-0.6329343538780126,0.10489556776838863,0,0
1969,incongruent,0,0.380397910416,left,-0.9665374414490174,-0.5544357063011591,0.13035129859258715,0,0
1969,congruent,1,0.464786119276,right,-0.7661779377543972,-0.6329343538780126,0.10489556776838863,0,0
1969,congruent,1,0.498786811557,right,-0.6955765058686305,-0.6329343538780126,0.10489556776838863,0,0
1969,incongruent,1,0.568774393758,left,-0.5642714195127759,-0.5544357063011591,0.13035129859258715,0,0
1969,congruent,1,0.628614257994,left,-0.4642374727346395,-0.6329343538780126,0.10489556776838863,0,0
1969,incongruent,1,0.582820557876,left,-0.5398759309592583,-0.5544357063011591,0.13035129859258715,0,0
1969,incongruent,1,0.574767468539,right,-0.553789722518416,-0.5544357063011591,0.13035129859258715,0,0
1969,incongruent,1,0.618483931197,right,-0.4804840677667968,-0.5544357063011591,0.13035129859258715,0,0
1969,congruent,1,0.521605570823,right,-0.6508435881679084,-0.6329343538780126,0.10489556776838863,0,0
1969,congruent,1,0.605759839021,left,-0.501271676708375,-0.6329343538780126,0.10489556776838863,0,0
1969,congruent,1,0.541597261041,right,-0.6132326145589715,-0.6329343538780126,0.10489556776838863,0,0
1969,congruent,1,0.442797061169,left,-0.8146437150960574,-0.6329343538780126,0.10489556776838863,0,0
1969,incongruent,1,0.585537032552,right,-0.5352258484961924,-0.5544357063011591,0.13035129859258715,0,0
1969,congruent,1,0.598880449839,left,-0.5126932836925172,-0.6329343538780126,0.10489556776838863,0,0
1969,congruent,1,0.598646463505,right,-0.5130840662868297,-0.6329343538780126,0.10489556776838863,0,0
1969,incongruent,1,0.595639884427,left,-0.5181190152917814,-0.5544357063011591,0.13035129859258715,0,0
1969,incongruent,1,0.67884248493,right,-0.3873661592924754,-0.5544357063011591,0.13035129859258715,0,0
1969,incongruent,1,0.516724261041,left,-0.660245890967025,-0.5544357063011591,0.13035129859258715,0,0
1974,congruent,1,0.57510692741,left,-0.5531992947602932,-0.6861206647656991,0.08396495479883243,0,0
1974,incongruent,1,0.546679588249,left,-0.6038924100704994,-0.5755230343111715,0.1451455952619383,0,0
1974,congruent,1,0.472759885665,right,-0.7491676606838833,-0.6861206647656991,0.08396495479883243,0,0
1974,incongruent,1,0.614767058469,left,-0.4865118496429236,-0.5755230343111715,0.1451455952619383,0,0
1974,incongruent,1,0.63846744971,right,-0.44868458411991713,-0.5755230343111715,0.1451455952619383,0,0
1974,congruent,1,0.517817256072,left,-0.6581328864725973,-0.6861206647656991,0.08396495479883243,0,0
1974,congruent,1,0.47486882622,right,-0.7447166684117152,-0.6861206647656991,0.08396495479883243,0,0
1974,incongruent,1,0.63386536241,right,-0.4559187092262785,-0.5755230343111715,0.1451455952619383,0,0
1974,incongruent,1,0.534711906727,right,-0.6260271692241369,-0.5755230343111715,0.1451455952619383,0,0
1974,congruent,1,0.475818931489,left,-0.7427178931511532,-0.6861206647656991,0.08396495479883243,0,0
1974,incongruent,1,0.491737701416,right,-0.709809831855918,-0.5755230343111715,0.1451455952619383,0,0
1974,incongruent,1,0.548447762961,left,-0.6006632399716575,-0.5755230343111715,0.1451455952619383,0,0
1974,incongruent,0,0.399639601794,right,-0.9171921335295863,-0.5755230343111715,0.1451455952619383,0,0
1974,congruent,1,0.471664206624,left,-0.7514879732246728,-0.6861206647656991,0.08396495479883243,0,0
1974,congruent,1,0.476667768988,right,-0.74093553183673,-0.6861206647656991,0.08396495479883243,0,0
1974,congruent,1,0.488513337382,right,-0.7163885051452978,-0.6861206647656991,0.08396495479883243,0,0
1974,incongruent,1,0.509601382099,left,-0.6741264626026651,-0.5755230343111715,0.1451455952619383,0,0
1974,congruent,1,0.526762371147,left,-0.6410057407701137,-0.6861206647656991,0.08396495479883243,0,0
1974,congruent,1,0.564645298692,right,-0.571557534903969,-0.6861206647656991,0.08396495479883243,0,0
1974,congruent,1,0.541504417049,left,-0.6134040555124952,-0.6861206647656991,0.08396495479883243,0,0
1974,congruent,1,0.485805869488,right,-0.7219461803791898,-0.6861206647656991,0.08396495479883243,0,0
1974,incongruent,1,0.781686960564,right,-0.2463009247648785,-0.5755230343111715,0.1451455952619383,0,0
1974,incongruent,1,0.544872871738,right,-0.6072027743949617,-0.5755230343111715,0.1451455952619383,0,0
1974,incongruent,1,0.522757729498,left,-0.6486371545598493,-0.5755230343111715,0.1451455952619383,0,0
1974,incongruent,1,0.555628491641,right,-0.5876553885654343,-0.5755230343111715,0.1451455952619383,0,0
1974,congruent,1,0.520794341081,left,-0.6524000539667035,-0.6861206647656991,0.08396495479883243,0,0
1974,incongruent,1,0.679810674593,left,-0.3859409392941259,-0.5755230343111715,0.1451455952619383,0,0
1974,incongruent,1,0.629914915807,right,-0.4621705229918116,-0.5755230343111715,0.1451455952619383,0,0
1974,congruent,1,0.542638712405,left,-0.6113115351817884,-0.6861206647656991,0.08396495479883243,0,0
1974,congruent,1,0.420811648113,right,-0.8655699370648443,-0.6861206647656991,0.08396495479883243,0,0
1974,incongruent,1,0.588902582143,left,-0.5294945043528226,-0.5755230343111715,0.1451455952619383,0,0
1974,congruent,1,0.536764397512,right,-0.6221960190860176,-0.6861206647656991,0.08396495479883243,0,0
1974,incongruent,1,0.5238322555,right,-0.6465837690030327,-0.5755230343111715,0.1451455952619383,0,0
1974,incongruent,1,0.595754986814,left,-0.5179257923895573,-0.5755230343111715,0.1451455952619383,0,0
1974,congruent,1,0.576866475348,right,-0.5501444511291137,-0.6861206647656991,0.08396495479883243,0,0
1974,congruent,1,0.546690071022,left,-0.6038732349033245,-0.6861206647656991,0.08396495479883243,0,0
1974,incongruent,1,0.558716930574,right,-0.5821123194608729,-0.5755230343111715,0.1451455952619383,0,0
1974,congruent,1,0.544886469777,left,-0.6071778183547012,-0.6861206647656991,0.08396495479883243,0,0
1974,incongruent,1,0.582780430554,left,-0.5399447835467461,-0.5755230343111715,0.1451455952619383,0,0
1974,congruent,1,0.436761113984,right,-0.8283688832762858,-0.6861206647656991,0.08396495479883243,0,0
1974,congruent,1,0.486877864336,left,-0.7197419792709637,-0.6861206647656991,0.08396495479883243,0,0
1974,incongruent,1,0.583723685124,right,-0.5383275500318218,-0.5755230343111715,0.1451455952619383,0,0
1974,congruent,1,0.482872614537,left,-0.7280023981331855,-0.6861206647656991,0.08396495479883243,0,0
1974,congruent,1,0.485632566005,right,-0.7223029780485152,-0.6861206647656991,0.08396495479883243,0,0
1974,congruent,1,0.471825181251,right,-0.7511467407092238,-0.6861206647656991,0.08396495479883243,0,0
1974,incongruent,1,0.586768604083,right,-0.5331247377523822,-0.5755230343111715,0.1451455952619383,0,0
1974,incongruent,0,0.398805698821,right,-0.919280951074287,-0.5755230343111715,0.1451455952619383,0,0
1974,incongruent,1,0.579827681155,left,-0.54502432104195,-0.5755230343111715,0.1451455952619383,0,0
1985,incongruent,1,0.730911884505,left,-0.31346236753084444,-0.3653582827846463,0.12134658960341353,0,0
1985,incongruent,1,0.667635508447,right,-0.4040129004018893,-0.3653582827846463,0.12134658960341353,0,0
1985,congruent,1,0.542785814986,right,-0.6110404844026905,-0.5106836514155848,0.1576543517258373,0,0
1985,congruent,1,0.529727829305,left,-0.6353919339506678,-0.5106836514155848,0.1576543517258373,0,0
1985,incongruent,1,0.673737232778,right,-0.39491510643309374,-0.3653582827846463,0.12134658960341353,0,0
1985,congruent,1,0.634613494897,left,-0.45473913485744116,-0.5106836514155848,0.1576543517258373,0,0
1985,congruent,1,0.464828885393,right,-0.7660859295212784,-0.5106836514155848,0.1576543517258373,0,0
1985,incongruent,1,0.628670797913,left,-0.4641475330367603,-0.3653582827846463,0.12134658960341353,0,0
1985,incongruent,1,0.734600495413,left,-0.30842847119848554,-0.3653582827846463,0.12134658960341353,0,0
1985,congruent,1,0.472507874087,left,-0.7497008674528032,-0.5106836514155848,0.1576543517258373,0,0
1985,congruent,1,0.642862730204,right,-0.44182406088836507,-0.5106836514155848,0.1576543517258373,0,0
1985,congruent,0,0.426783473732,left,-0.8514784816444354,-0.5106836514155848,0.1576543517258373,0,0
1985,incongruent,1,0.800724536166,right,-0.2222382909785183,-0.3653582827846463,0.12134658960341353,0,0
1985,incongruent,1,0.64785986253,right,-0.43408086754553626,-0.3653582827846463,0.12134658960341353,0,0
1985,incongruent,1,0.776743727713,left,-0.25264480578117154,-0.3653582827846463,0.12134658960341353,0,0
1985,congruent,1,0.946616639004,left,-0.054861084013935815,-0.5106836514155848,0.1576543517258373,0,0
1985,congruent,1,0.6336833503,right,-0.4562058967866869,-0.5106836514155848,0.1576543517258373,0,0
1985,incongruent,1,0.729511563844,left,-0.31538005940538666,-0.3653582827846463,0.12134658960341353,0,0
1985,congruent,1,0.679701652458,left,-0.38610132347463605,-0.5106836514155848,0.1576543517258373,0,0
1985,congruent,1,0.617757950706,right,-0.4816585637696928,-0.5106836514155848,0.1576543517258373,0,0
1985,congruent,1,0.586669547963,left,-0.5332935683295416,-0.5106836514155848,0.1576543517258373,0,0
1985,incongruent,1,0.83476666911,left,-0.18060303137302475,-0.3653582827846463,0.12134658960341353,0,0
1985,incongruent,1,0.665021780386,right,-0.4079354864024826,-0.3653582827846463,0.12134658960341353,0,0
1985,incongruent,0,0.450821856825,left,-0.7966830134643459,-0.3653582827846463,0.12134658960341353,0,0
1985,incongruent,1,0.642524385451,left,-0.44235050892365885,-0.3653582827846463,0.12134658960341353,0,0
1985,incongruent,1,0.709302894236,right,-0.3434726303707473,-0.3653582827846463,0.12134658960341353,0,0
1985,congruent,1,0.611644318194,left,-0.49160434484160304,-0.5106836514155848,0.1576543517258373,0,0
1985,congruent,1,0.640803533033,left,-0.44503236977096455,-0.5106836514155848,0.1576543517258373,0,0
1985,congruent,1,0.62174726363,right,-0.47522159738591135,-0.5106836514155848,0.1576543517258373,0,0
1985,incongruent,1,0.730797338567,left,-0.3136190962925249,-0.3653582827846463,0.12134658960341353,0,0
1985,incongruent,1,0.628814121555,right,-0.46391958017561374,-0.3653582827846463,0.12134658960341353,0,0
1985,congruent,1,0.635815169591,right,-0.45284737172903206,-0.5106836514155848,0.1576543517258373,0,0
1985,incongruent,1,0.757737542862,left,-0.2774182028203994,-0.3653582827846463,0.12134658960341353,0,0
1985,congruent,1,0.519709777136,right,-0.6544847441064126,-0.5106836514155848,0.1576543517258373,0,0
1985,incongruent,1,0.780532474073,right,-0.2477789331362617,-0.3653582827846463,0.12134658960341353,0,0
1985,congruent,1,0.667726545702,left,-0.4038765519788409,-0.5106836514155848,0.1576543517258373,0,0
1985,congruent,1,0.601707657028,left,-0.5079835711794972,-0.5106836514155848,0.1576543517258373,0,0
1985,congruent,1,0.696762092369,right,-0.3613112573792222,-0.5106836514155848,0.1576543517258373,0,0
1985,incongruent,1,0.702599021914,left,-0.35296893124645473,-0.3653582827846463,0.12134658960341353,0,0
1985,incongruent,1,0.724764214881,right,-0.32190889787702615,-0.3653582827846463,0.12134658960341353,0,0
1985,incongruent,1,0.671718139785,right,-0.39791646129013586,-0.3653582827846463,0.12134658960341353,0,0
1985,incongruent,1,0.702848466347,left,-0.35261396325554406,-0.3653582827846463,0.12134658960341353,0,0
1985,congruent,1,0.61974209797,left,-0.4784518584990715,-0.5106836514155848,0.1576543517258373,0,0
1985,congruent,1,0.57146653918799994,right,-0.5595493465636996,-0.5106836514155848,0.1576543517258373,0,0
1985,incongruent,1,0.628633022969,left,-0.46420762184486525,-0.3653582827846463,0.12134658960341353,0,0
1985,congruent,1,0.63576766186,right,-0.4529220939254114,-0.5106836514155848,0.1576543517258373,0,0
1985,incongruent,1,0.743867742025,right,-0.2958920260467405,-0.3653582827846463,0.12134658960341353,0,0
1985,congruent,1,0.576522335052,left,-0.5507411975221936,-0.5106836514155848,0.1576543517258373,0,0
1992,incongruent,1,0.54400592886,right,-0.6087951335458783,-0.6137796062002853,0.1051117554990847,0,0
1992,incongruent,1,0.660967403888,left,-0.4140507536777092,-0.6137796062002853,0.1051117554990847,0,0
1992,incongruent,1,0.53548036989,left,-0.6245910473012514,-0.6137796062002853,0.1051117554990847,0,0
1992,congruent,1,0.55462856135,left,-0.5894566481181934,-0.6094711385416607,0.12836612893308338,0,0
1992,incongruent,1,0.675716195025,right,-0.39198212093707047,-0.6137796062002853,0.1051117554990847,0,0
1992,congruent,1,0.483448585045,right,-0.7268103088435013,-0.6094711385416607,0.12836612893308338,0,0
1992,congruent,1,0.500775389881,left,-0.6915976020151585,-0.6094711385416607,0.12836612893308338,0,0
1992,congruent,1,0.494725329292,right,-0.7037525607412464,-0.6094711385416607,0.12836612893308338,0,0
1992,incongruent,1,0.546728473403,right,-0.6038029921198786,-0.6137796062002853,0.1051117554990847,0,0
1992,incongruent,1,0.604603523844,left,-0.5031823682647469,-0.6137796062002853,0.1051117554990847,0,0
1992,congruent,1,0.470559460622,right,-0.7538329504241339,-0.6094711385416607,0.12836612893308338,0,0
1992,congruent,1,0.586746922218,left,-0.5331616897389841,-0.6094711385416607,0.12836612893308338,0,0
1992,incongruent,1,0.500729088764,right,-0.6916900651404271,-0.6137796062002853,0.1051117554990847,0,0
1992,congruent,1,0.702696073197,left,-0.3528308089638226,-0.6094711385416607,0.12836612893308338,0,0
1992,incongruent,1,0.521833731405,left,-0.6504062640511166,-0.6137796062002853,0.1051117554990847,0,0
1992,congruent,1,0.472745655439,right,-0.7491977614614725,-0.6094711385416607,0.12836612893308338,0,0
1992,incongruent,1,0.47590271435,right,-0.7425418272571332,-0.6137796062002853,0.1051117554990847,0,0
1992,congruent,1,0.546541668031,left,-0.6041447290186345,-0.6094711385416607,0.12836612893308338,0,0
1992,incongruent,1,0.574740446503,left,-0.5538367374813428,-0.6137796062002853,0.1051117554990847,0,0
1992,incongruent,1,0.56669148443,right,-0.5679402425120174,-0.6137796062002853,0.1051117554990847,0,0
1992,congruent,1,0.471640714732,right,-0.7515377808562732,-0.6094711385416607,0.12836612893308338,0,0
1992,congruent,1,0.579850122607,left,-0.5449856181333835,-0.6094711385416607,0.12836612893308338,0,0
1992,incongruent,1,0.514565563754,left,-0.6644322998462343,-0.6137796062002853,0.1051117554990847,0,0
1992,congruent,1,0.672830995933,right,-0.3962611013295971,-0.6094711385416607,0.12836612893308338,0,0
1992,incongruent,1,0.516767709886,left,-0.660161809336499,-0.6137796062002853,0.1051117554990847,0,0
1992,congruent,1,0.578534262064,right,-0.5472575084081416,-0.6094711385416607,0.12836612893308338,0,0
1992,congruent,1,0.61581263846,right,-0.4848125200583039,-0.6094711385416607,0.12836612893308338,0,0
1992,incongruent,1,0.483567556466,right,-0.7265642500312577,-0.6137796062002853,0.1051117554990847,0,0
1992,congruent,1,0.482721668374,left,-0.7283150473832918,-0.6094711385416607,0.12836612893308338,0,0
1992,incongruent,1,0.50672284381,right,-0.679791084015418,-0.6137796062002853,0.1051117554990847,0,0
1992,incongruent,1,0.513736732703,left,-0.6660443379275333,-0.6137796062002853,0.1051117554990847,0,0
1992,congruent,1,0.511783771773,left,-0.6698530639010145,-0.6094711385416607,0.12836612893308338,0,0
1992,incongruent,1,0.485763335053,left,-0.7220337385990846,-0.6137796062002853,0.1051117554990847,0,0
1992,incongruent,1,0.487553412775,right,-0.7183554298793383,-0.6137796062002853,0.1051117554990847,0,0
1992,congruent,1,0.641591315175,left,-0.44380375872001354,-0.6094711385416607,0.12836612893308338,0,0
1992,congruent,1,0.58488211177,left,-0.5363449703997102,-0.6094711385416607,0.12836612893308338,0,0
1992,congruent,1,0.420699823054,right,-0.8658357089847519,-0.6094711385416607,0.12836612893308338,0,0
1992,incongruent,0,0.457785824579,left,-0.78135383616544,-0.6137796062002853,0.1051117554990847,0,0
1992,congruent,1,0.585727033554,right,-0.5349014109775064,-0.6094711385416607,0.12836612893308338,0,0
1992,incongruent,1,0.612733795315,left,-0.4898247027579656,-0.6137796062002853,0.1051117554990847,0,0
1992,congruent,1,0.56773850427,right,-0.5660943460746437,-0.6094711385416607,0.12836612893308338,0,0
1992,congruent,1,0.559574573026,left,-0.5805784749893992,-0.6094711385416607,0.12836612893308338,0,0
1992,incongruent,1,0.533853093647,left,-0.6276345834003728,-0.6137796062002853,0.1051117554990847,0,0
1992,incongruent,1,0.523758397741,right,-0.6467247740012998,-0.6137796062002853,0.1051117554990847,0,0
1992,incongruent,1,0.635571775055,right,-0.4532302520787139,-0.6137796062002853,0.1051117554990847,0,0
1992,congruent,1,0.587867369544,left,-0.5312539185264441,-0.6094711385416607,0.12836612893308338,0,0
1992,incongruent,1,0.581735211126,left,-0.5417398984791167,-0.6137796062002853,0.1051117554990847,0,0
1992,congruent,1,0.476786233218,right,-0.7406870369322343,-0.6094711385416607,0.12836612893308338,0,0
1995,congruent,1,0.408920073519,right,-0.8942355613051173,-0.7290370659985912,0.15705565952618478,0,0
1995,congruent,1,0.422214904446,left,-0.862240842329336,-0.7290370659985912,0.15705565952618478,0,0
1995,congruent,1,0.420676753039,left,-0.8658905477232225,-0.7290370659985912,0.15705565952618478,0,0
1995,incongruent,1,0.626642170161,left,-0.46737960275890944,-0.6033453448238367,0.11759935460063013,0,0
1995,incongruent,1,0.554369259411,right,-0.5899242810366196,-0.6033453448238367,0.11759935460063013,0,0
1995,congruent,1,0.545734128357,right,-0.6056233662342572,-0.7290370659985912,0.15705565952618478,0,0
1995,incongruent,0,0.428598376081,left,-0.8472349848415789,-0.6033453448238367,0.11759935460063013,0,0
1995,incongruent,1,0.585757800573,left,-0.5348488844434691,-0.6033453448238367,0.11759935460063013,0,0
1995,incongruent,1,0.535826624994,right,-0.6239446310681631,-0.6033453448238367,0.11759935460063013,0,0
1995,incongruent,1,0.614854910023,left,-0.486368957670593,-0.6033453448238367,0.11759935460063013,0,0
1995,congruent,1,0.4397995779,left,-0.8214361606163706,-0.7290370659985912,0.15705565952618478,0,0
1995,congruent,1,0.501672599344,right,-0.6898075646023127,-0.7290370659985912,0.15705565952618478,0,0
1995,congruent,1,0.730803774863,right,-0.31361028910711586,-0.7290370659985912,0.15705565952618478,0,0
1995,congruent,1,0.49953542885,left,-0.6940767547802165,-0.7290370659985912,0.15705565952618478,0,0
1995,incongruent,1,0.500753067572,left,-0.6916421784999056,-0.6033453448238367,0.11759935460063013,0,0
1995,incongruent,1,0.59387083973200006,right,-0.5210934247919482,-0.6033453448238367,0.11759935460063013,0,0
1995,incongruent,1,0.563600825511,left,-0.5734090342478968,-0.6033453448238367,0.11759935460063013,0,0
1995,incongruent,1,0.580783003983,right,-0.5433780790143935,-0.6033453448238367,0.11759935460063013,0,0
1995,incongruent,1,0.555869368632,right,-0.5872219608398753,-0.6033453448238367,0.11759935460063013,0,0
1995,congruent,1,0.616468856751,left,-0.4837474738727032,-0.7290370659985912,0.15705565952618478,0,0
1995,incongruent,1,0.524718854873,left,-0.6448926743572485,-0.6033453448238367,0.11759935460063013,0,0
1995,congruent,1,0.640799957694,right,-0.445037949248589,-0.7290370659985912,0.15705565952618478,0,0
1995,congruent,1,0.475606308485,right,-0.7431648499872898,-0.7290370659985912,0.15705565952618478,0,0
1995,congruent,1,0.452573713516,left,-0.7928046263115861,-0.7290370659985912,0.15705565952618478,0,0
1995,incongruent,1,0.527785722634,right,-0.6390649059911815,-0.6033453448238367,0.11759935460063013,0,0
1995,incongruent,1,0.640623932844,left,-0.44531268246123934,-0.6033453448238367,0.11759935460063013,0,0
1995,incongruent,1,0.534690889544,right,-0.6260664756165943,-0.6033453448238367,0.11759935460063013,0,0
1995,congruent,1,0.450629341301,right,-0.7971101370342674,-0.7290370659985912,0.15705565952618478,0,0
1995,congruent,1,0.435595231964,left,-0.831041833887738,-0.7290370659985912,0.15705565952618478,0,0
1995,incongruent,1,0.551533565937,left,-0.5950525791542556,-0.6033453448238367,0.11759935460063013,0,0
1995,congruent,1,0.413811005369,left,-0.8823459181592059,-0.7290370659985912,0.15705565952618478,0,0
1995,congruent,0,0.583768100679,left,-0.5382514628926033,-0.7290370659985912,0.15705565952618478,0,0
1995,incongruent,1,0.509790996481,left,-0.6737544480807379,-0.6033453448238367,0.11759935460063013,0,0
1995,congruent,1,0.559765963737,right,-0.5802365045048516,-0.7290370659985912,0.15705565952618478,0,0
1995,incongruent,1,0.503683082136,right,-0.6858080139774412,-0.6033453448238367,0.11759935460063013,0,0
1995,incongruent,1,0.638763326814,right,-0.44822127378519766,-0.6033453448238367,0.11759935460063013,0,0
1995,incongruent,1,0.596503884324,left,-0.5166695256061897,-0.6033453448238367,0.11759935460063013,0,0
1995,congruent,1,0.455520946204,left,-0.7863135782592736,-0.7290370659985912,0.15705565952618478,0,0
1995,congruent,1,0.480973653302,right,-0.731942785216489,-0.7290370659985912,0.15705565952618478,0,0
1995,congruent,1,0.420496079319,left,-0.8663201234675363,-0.7290370659985912,0.15705565952618478,0,0
1995,congruent,1,0.469733621163,right,-0.7555895084321456,-0.7290370659985912,0.15705565952618478,0,0
1995,incongruent,1,0.533909708511,left,-0.6275285395038471,-0.6033453448238367,0.11759935460063013,0,0
1995,congruent,1,0.440542541572,right,-0.8197482626231734,-0.7290370659985912,0.15705565952618478,0,0
1995,congruent,1,0.444639595736,left,-0.8104912221823115,-0.7290370659985912,0.15705565952618478,0,0
1995,incongruent,1,0.558260710473,left,-0.5829292026456463,-0.6033453448238367,0.11759935460063013,0,0
1995,congruent,1,0.412374953915,left,-0.8858222611884751,-0.7290370659985912,0.15705565952618478,0,0
1995,incongruent,1,0.566717561651,right,-0.5678942269608008,-0.6033453448238367,0.11759935460063013,0,0
1995,incongruent,0,0.382644963329,left,-0.960647708418349,-0.6033453448238367,0.11759935460063013,0,0
2910,incongruent,1,0.631859757545,right,-0.4590878120779794,-0.0016894989305106126,0.38161402254576154,0,0
2910,incongruent,1,0.964655262037,left,-0.035984482881501,-0.0016894989305106126,0.38161402254576154,0,0
2910,congruent,1,0.668320101246,left,-0.4029880267399866,-0.4003340988371871,0.14796937963738438,0,0
2910,congruent,1,0.626856487833,left,-0.46703765157655824,-0.4003340988371871,0.14796937963738438,0,0
2910,congruent,1,0.596684333086,right,-0.5163670607297475,-0.4003340988371871,0.14796937963738438,0,0
2910,incongruent,1,1.3108001774,right,0.270637773179712,-0.0016894989305106126,0.38161402254576154,0,0
2910,incongruent,1,0.782851447152,left,-0.24481232365762248,-0.0016894989305106126,0.38161402254576154,0,0
2910,congruent,1,0.586315279308,right,-0.5338976147886865,-0.4003340988371871,0.14796937963738438,0,0
2910,incongruent,1,2.30283368098,left,0.8341403998112197,-0.0016894989305106126,0.38161402254576154,0,0
2910,congruent,1,0.683729910742,left,-0.38019230667647924,-0.4003340988371871,0.14796937963738438,0,0
2910,incongruent,1,1.79148927774,right,0.5830472726710004,-0.0016894989305106126,0.38161402254576154,0,0
2910,incongruent,1,0.676442551084,left,-0.39090775576958237,-0.0016894989305106126,0.38161402254576154,0,0
2910,congruent,1,0.574849516935,left,-0.5536469821150015,-0.4003340988371871,0.14796937963738438,0,0
2910,congruent,1,0.932595014245,right,-0.06978424070305612,-0.4003340988371871,0.14796937963738438,0,0
2910,congruent,1,0.615814549467,right,-0.4848094168351553,-0.4003340988371871,0.14796937963738438,0,0
2910,incongruent,1,0.970799768758,right,-0.0296350433270821,-0.0016894989305106126,0.38161402254576154,0,0
2910,congruent,1,0.867799492326,left,-0.14179459063073363,-0.4003340988371871,0.14796937963738438,0,0
2910,incongruent,1,1.69175437619,left,0.5257660829097692,-0.0016894989305106126,0.38161402254576154,0,0
2910,incongruent,1,0.75168793632,right,-0.2854340194574916,-0.0016894989305106126,0.38161402254576154,0,0
2910,incongruent,1,0.712723249929,left,-0.33866208268425313,-0.0016894989305106126,0.38161402254576154,0,0
2910,congruent,1,0.633564556227,right,-0.4563933803449332,-0.4003340988371871,0.14796937963738438,0,0
2910,congruent,1,0.599818912287,left,-0.5111274821756566,-0.4003340988371871,0.14796937963738438,0,0
2910,incongruent,1,0.637775589356,right,-0.4497687983339763,-0.0016894989305106126,0.38161402254576154,0,0
2910,congruent,1,0.810542624339,right,-0.210051349011553,-0.4003340988371871,0.14796937963738438,0,0
2910,congruent,1,0.558671316737,right,-0.5821939631279422,-0.4003340988371871,0.14796937963738438,0,0
2910,congruent,1,0.6017912883,left,-0.5078445909627562,-0.4003340988371871,0.14796937963738438,0,0
2910,congruent,1,0.696799922599,left,-0.36125696452450456,-0.4003340988371871,0.14796937963738438,0,0
2910,incongruent,1,0.945619811413,right,-0.05591468139389583,-0.0016894989305106126,0.38161402254576154,0,0
2910,congruent,1,0.592667477935,right,-0.5231217827331268,-0.4003340988371871,0.14796937963738438,0,0
2910,incongruent,1,1.03854256424,left,0.037818349762772416,-0.0016894989305106126,0.38161402254576154,0,0
2910,incongruent,1,2.29283039023,left,0.8297870326401809,-0.0016894989305106126,0.38161402254576154,0,0
2910,incongruent,1,0.691744977498,right,-0.3685379209153666,-0.0016894989305106126,0.38161402254576154,0,0
2910,congruent,1,0.789785699563,left,-0.23599363669639764,-0.4003340988371871,0.14796937963738438,0,0
2910,incongruent,1,0.888768469425,left,-0.11791851673040474,-0.0016894989305106126,0.38161402254576154,0,0
2910,incongruent,1,0.826622056523,right,-0.19040769383078934,-0.0016894989305106126,0.38161402254576154,0,0
2910,congruent,1,0.821017456091,right,-0.19721090776914,-0.4003340988371871,0.14796937963738438,0,0
2910,incongruent,1,0.702498940844,left,-0.35311138547074644,-0.0016894989305106126,0.38161402254576154,0,0
2910,incongruent,1,0.910728057445,right,-0.09351093622476613,-0.0016894989305106126,0.38161402254576154,0,0
2910,congruent,1,0.654784855844,left,-0.4234485616634239,-0.4003340988371871,0.14796937963738438,0,0
2910,congruent,1,0.598627664491,right,-0.5131154693106851,-0.4003340988371871,0.14796937963738438,0,0
2910,congruent,1,0.644800251914,left,-0.4388146971043109,-0.4003340988371871,0.14796937963738438,0,0
2910,congruent,1,0.604765205122,right,-0.5029149869854218,-0.4003340988371871,0.14796937963738438,0,0
2910,incongruent,1,1.15479251662,right,0.14392068854664367,-0.0016894989305106126,0.38161402254576154,0,0
2910,incongruent,1,1.05283726979,right,0.05148868159872606,-0.0016894989305106126,0.38161402254576154,0,0
2910,incongruent,1,0.8396816553,left,-0.17473244076223812,-0.0016894989305106126,0.38161402254576154,0,0
2910,congruent,1,0.653554578228,left,-0.42532923260641825,-0.4003340988371871,0.14796937963738438,0,0
2910,congruent,1,0.844776252794,right,-0.1686834762808165,-0.4003340988371871,0.14796937963738438,0,0
2910,incongruent,1,1.31163131099,left,0.27127163806541643,-0.0016894989305106126,0.38161402254576154,0,0
2914,incongruent,1,0.544933681498,right,-0.6070911770479234,-0.6896599937816272,0.08977352672739614,0,0
2914,congruent,1,0.415378340812,left,-0.8785655094579892,-0.8198867261332987,0.16384441676583505,0,0
2914,congruent,1,0.437846246876,right,-0.8258874647624144,-0.8198867261332987,0.16384441676583505,0,0
2914,incongruent,1,0.474775535505,left,-0.7449131434692423,-0.6896599937816272,0.08977352672739614,0,0
2914,incongruent,1,0.484746137535,right,-0.724129952843673,-0.6896599937816272,0.08977352672739614,0,0
2914,congruent,1,0.394783503965,left,-0.9294177555657658,-0.8198867261332987,0.16384441676583505,0,0
2914,congruent,1,0.412799551459,right,-0.8847931513972542,-0.8198867261332987,0.16384441676583505,0,0
2914,incongruent,1,0.474870815695,left,-0.7447124788951105,-0.6896599937816272,0.08977352672739614,0,0
2914,incongruent,1,0.545743048705,left,-0.6056070207747501,-0.6896599937816272,0.08977352672739614,0,0
2914,congruent,1,0.445829336433,right,-0.8078190539303646,-0.8198867261332987,0.16384441676583505,0,0
2914,incongruent,1,0.507816860925,right,-0.6776344063931615,-0.6896599937816272,0.08977352672739614,0,0
2914,incongruent,0,0.431777208521,left,-0.8398455447840533,-0.6896599937816272,0.08977352672739614,0,0
2914,congruent,1,0.819722583103,left,-0.19878930925371407,-0.8198867261332987,0.16384441676583505,0,0
2914,congruent,1,0.437697737853,left,-0.8262267030577245,-0.8198867261332987,0.16384441676583505,0,0
2914,congruent,1,0.451893377374,right,-0.7943090177419954,-0.8198867261332987,0.16384441676583505,0,0
2914,incongruent,1,0.491884637307,left,-0.7095110670021556,-0.6896599937816272,0.08977352672739614,0,0
2914,incongruent,1,0.541782886199,left,-0.6128899367643132,-0.6896599937816272,0.08977352672739614,0,0
2914,congruent,1,0.42264988142,right,-0.8612111461703534,-0.8198867261332987,0.16384441676583505,0,0
2914,congruent,1,0.413528277668,right,-0.8830293807187688,-0.8198867261332987,0.16384441676583505,0,0
2914,incongruent,1,0.493763353255,left,-0.7056989185654146,-0.6896599937816272,0.08977352672739614,0,0
2914,incongruent,1,0.528788736948,right,-0.6371662899377564,-0.6896599937816272,0.08977352672739614,0,0
2914,congruent,1,0.364749437896,left,-1.0085446326469134,-0.8198867261332987,0.16384441676583505,0,0
2914,congruent,1,0.428650799655,left,-0.8471126783394574,-0.8198867261332987,0.16384441676583505,0,0
2914,incongruent,1,0.487837828913,right,-0.7177722461600161,-0.6896599937816272,0.08977352672739614,0,0
2914,congruent,1,0.414915280424,left,-0.8796809231481975,-0.8198867261332987,0.16384441676583505,0,0
2914,incongruent,1,0.454706263985,left,-0.7881036421629297,-0.6896599937816272,0.08977352672739614,0,0
2914,incongruent,1,0.456787138448,right,-0.7835377767985389,-0.6896599937816272,0.08977352672739614,0,0
2914,congruent,1,0.406818988252,left,-0.8993869387780975,-0.8198867261332987,0.16384441676583505,0,0
2914,incongruent,1,0.482681272105,right,-0.7283987352763565,-0.6896599937816272,0.08977352672739614,0,0
2914,congruent,1,0.358797219813,right,-1.0249978973977505,-0.8198867261332987,0.16384441676583505,0,0
2914,incongruent,1,0.510798984172,left,-0.6717791435258086,-0.6896599937816272,0.08977352672739614,0,0
2914,congruent,1,0.450810159246,right,-0.7967089610322942,-0.8198867261332987,0.16384441676583505,0,0
2914,congruent,1,0.423615663914,right,-0.8589286878601821,-0.8198867261332987,0.16384441676583505,0,0
2914,incongruent,1,0.539712698847,left,-0.6167183201791003,-0.6896599937816272,0.08977352672739614,0,0
2914,congruent,1,0.388506684703,right,-0.9454449028797357,-0.8198867261332987,0.16384441676583505,0,0
2914,incongruent,1,0.662799243777,right,-0.4112831343824019,-0.6896599937816272,0.08977352672739614,0,0
2914,congruent,1,0.565852006282,left,-0.5694227079689789,-0.8198867261332987,0.16384441676583505,0,0
2914,incongruent,1,0.544531166986,right,-0.607830098603538,-0.6896599937816272,0.08977352672739614,0,0
2914,incongruent,0,0.508484500413,right,-0.6763205449551276,-0.6896599937816272,0.08977352672739614,0,0
2914,congruent,1,0.480816288831,left,-0.7322700177347564,-0.8198867261332987,0.16384441676583505,0,0
2914,incongruent,1,0.480635990098,right,-0.7326450727199385,-0.6896599937816272,0.08977352672739614,0,0
2914,congruent,1,0.416790460443,right,-0.8751716764176692,-0.8198867261332987,0.16384441676583505,0,0
2914,incongruent,1,0.459857784918,left,-0.7768380005215367,-0.6896599937816272,0.08977352672739614,0,0
2914,incongruent,1,0.52576374266399994,left,-0.6429033255797516,-0.6896599937816272,0.08977352672739614,0,0
2914,congruent,1,0.447456792286,right,-0.8041752994796592,-0.8198867261332987,0.16384441676583505,0,0
2914,congruent,1,0.416634785815,left,-0.8755452543252487,-0.8198867261332987,0.16384441676583505,0,0
2914,incongruent,1,0.454521585603,right,-0.7885098734164564,-0.6896599937816272,0.08977352672739614,0,0
2914,congruent,1,0.511789251352,left,-0.6698423571338836,-0.8198867261332987,0.16384441676583505,0,0
2919,incongruent,1,0.679839839285,left,-0.3858980390168756,-0.5816547481033517,0.17275874706674438,0,0
2919,congruent,1,0.416862374449,left,-0.8749991489501948,-0.7552552090524238,0.11125713530743503,0,0
2919,congruent,1,0.398568811574,right,-0.9198751191869642,-0.7552552090524238,0.11125713530743503,0,0
2919,incongruent,1,0.653905567447,right,-0.4247923302333822,-0.5816547481033517,0.17275874706674438,0,0
2919,incongruent,1,0.523406630506,right,-0.6473966208234201,-0.5816547481033517,0.17275874706674438,0,0
2919,congruent,1,0.494488338804,left,-0.7042317099891339,-0.7552552090524238,0.11125713530743503,0,0
2919,incongruent,1,0.704736225606,left,-0.34993169425731924,-0.5816547481033517,0.17275874706674438,0,0
2919,congruent,1,0.53467874231,right,-0.6260891941110021,-0.7552552090524238,0.11125713530743503,0,0
2919,incongruent,1,0.504859350531,left,-0.6834754022989487,-0.5816547481033517,0.17275874706674438,0,0
2919,congruent,1,0.447601932856,right,-0.8038509842873814,-0.7552552090524238,0.11125713530743503,0,0
2919,congruent,1,0.534638729473,right,-0.6261640321980522,-0.7552552090524238,0.11125713530743503,0,0
2919,incongruent,1,0.566905930414,left,-0.5675618965776494,-0.5816547481033517,0.17275874706674438,0,0
2919,congruent,1,0.538517698216,left,-0.6189349171578875,-0.7552552090524238,0.11125713530743503,0,0
2919,incongruent,1,0.54956238154,right,-0.5986329873962204,-0.5816547481033517,0.17275874706674438,0,0
2919,congruent,1,0.461801201395,left,-0.7726207805168367,-0.7552552090524238,0.11125713530743503,0,0
2919,incongruent,0,0.498793915626,left,-0.6955622632739079,-0.5816547481033517,0.17275874706674438,0,0
2919,incongruent,1,0.783763260592,right,-0.24364826776250836,-0.5816547481033517,0.17275874706674438,0,0
2919,congruent,1,0.395576823275,left,-0.9274102672111972,-0.7552552090524238,0.11125713530743503,0,0
2919,congruent,1,0.497875941219,left,-0.6974043470096076,-0.7552552090524238,0.11125713530743503,0,0
2919,congruent,1,0.455746342994,right,-0.7858188896047629,-0.7552552090524238,0.11125713530743503,0,0
2919,incongruent,1,0.711717310491,left,-0.3400744822370014,-0.5816547481033517,0.17275874706674438,0,0
2919,congruent,1,0.425723678027,right,-0.8539647863018429,-0.7552552090524238,0.11125713530743503,0,0
2919,incongruent,0,0.340642111551,left,-1.0769228790803462,-0.5816547481033517,0.17275874706674438,0,0
2919,incongruent,1,0.627567316441,left,-0.4659043365331724,-0.5816547481033517,0.17275874706674438,0,0
2919,incongruent,1,0.538629011109,right,-0.6187282361321136,-0.5816547481033517,0.17275874706674438,0,0
2919,congruent,1,0.476586736343,left,-0.7411055444508683,-0.7552552090524238,0.11125713530743503,0,0
2919,incongruent,1,0.500803182085,right,-0.6915421052128407,-0.5816547481033517,0.17275874706674438,0,0
2919,incongruent,1,0.51666613704,left,-0.6603583828213508,-0.5816547481033517,0.17275874706674438,0,0
2919,congruent,1,0.382672341121,right,-0.9605761621672646,-0.7552552090524238,0.11125713530743503,0,0
2919,incongruent,1,0.582793523815,left,-0.5399223169139743,-0.5816547481033517,0.17275874706674438,0,0
2919,congruent,1,0.561754539784,left,-0.5766902864469059,-0.7552552090524238,0.11125713530743503,0,0
2919,congruent,1,0.523542327047,right,-0.6471373979820755,-0.7552552090524238,0.11125713530743503,0,0
2919,incongruent,1,0.589850550399,left,-0.5278860785778268,-0.5816547481033517,0.17275874706674438,0,0
2919,incongruent,1,0.598546971094,right,-0.5132502757035432,-0.5816547481033517,0.17275874706674438,0,0
2919,incongruent,1,0.463718358527,left,-0.7684778969796113,-0.5816547481033517,0.17275874706674438,0,0
2919,congruent,1,0.477837389863,left,-0.7384847929390692,-0.7552552090524238,0.11125713530743503,0,0
2919,incongruent,1,0.513686874198,right,-0.6661413933284492,-0.5816547481033517,0.17275874706674438,0,0
2919,congruent,1,0.412809905376,right,-0.8847680695212781,-0.7552552090524238,0.11125713530743503,0,0
2919,congruent,1,0.488684669959,right,-0.7160378442199408,-0.7552552090524238,0.11125713530743503,0,0
2919,congruent,1,0.555776942741,left,-0.5873882473471347,-0.7552552090524238,0.11125713530743503,0,0
2919,congruent,1,0.49380624206,left,-0.7056120612842053,-0.7552552090524238,0.11125713530743503,0,0
2919,incongruent,1,0.564802593166,right,-0.5712790015140696,-0.5816547481033517,0.17275874706674438,0,0
2919,congruent,1,0.476739057225,right,-0.7407859876229215,-0.7552552090524238,0.11125713530743503,0,0
2919,congruent,1,0.457827116232,right,-0.7812636416057357,-0.7552552090524238,0.11125713530743503,0,0
2919,incongruent,1,0.552744362303,left,-0.5928596586579703,-0.5816547481033517,0.17275874706674438,0,0
2919,incongruent,0,0.459644746062,right,-0.777301379039016,-0.5816547481033517,0.17275874706674438,0,0
2919,incongruent,1,0.575701472177,right,-0.5521660301089233,-0.5816547481033517,0.17275874706674438,0,0
2919,congruent,1,0.43391318253,left,-0.8349108051459087,-0.7552552090524238,0.11125713530743503,0,0
2927,congruent,1,0.429815924883,right,-0.8443982436150854,-0.7632250351855749,0.08561310854368913,0,0
2927,congruent,1,0.416088488263,left,-0.8768573291702269,-0.7632250351855749,0.08561310854368913,0,0
2927,congruent,1,0.490726685446,left,-0.7118679549602207,-0.7632250351855749,0.08561310854368913,0,0
2927,incongruent,1,0.574634441315,right,-0.5540211945969874,-0.5132426477217623,0.3058018699226363,0,0
2927,incongruent,1,0.543763342723,left,-0.609241158539154,-0.5132426477217623,0.3058018699226363,0,0
2927,congruent,1,0.407806309859,right,-0.896962948036033,-0.7632250351855749,0.08561310854368913,0,0
2927,incongruent,0,0.416630835681,left,-0.8755547354172274,-0.5132426477217623,0.3058018699226363,0,0
2927,incongruent,1,0.699829746479,left,-0.3569181928370613,-0.5132426477217623,0.3058018699226363,0,0
2927,incongruent,1,0.543591173709,left,-0.6095578335753763,-0.5132426477217623,0.3058018699226363,0,0
2927,incongruent,0,0.451732093897,right,-0.794665987490725,-0.5132426477217623,0.3058018699226363,0,0
2927,incongruent,1,0.585718873239,right,-0.5349153430164557,-0.5132426477217623,0.3058018699226363,0,0
2927,congruent,1,0.506702647887,right,-0.6798309407649632,-0.7632250351855749,0.08561310854368913,0,0
2927,congruent,1,0.44225915493,left,-0.8158592453537876,-0.7632250351855749,0.08561310854368913,0,0
2927,congruent,1,0.473914478873,right,-0.7467283978840514,-0.7632250351855749,0.08561310854368913,0,0
2927,incongruent,1,0.609709558685,right,-0.4947725685055132,-0.5132426477217623,0.3058018699226363,0,0
2927,congruent,1,0.4337537277,left,-0.8352783536369599,-0.7632250351855749,0.08561310854368913,0,0
2927,congruent,1,0.494659981221,left,-0.7038846590661368,-0.7632250351855749,0.08561310854368913,0,0
2927,congruent,1,0.480644056338,right,-0.7326282904304692,-0.7632250351855749,0.08561310854368913,0,0
2927,incongruent,1,0.717758234742,left,-0.33162248705200276,-0.5132426477217623,0.3058018699226363,0,0
2927,congruent,1,0.47155541784,right,-0.7517186486297657,-0.7632250351855749,0.08561310854368913,0,0
2927,incongruent,1,0.542742610329,right,-0.6111200855554845,-0.5132426477217623,0.3058018699226363,0,0
2927,incongruent,1,0.583760938967,right,-0.5382637310448408,-0.5132426477217623,0.3058018699226363,0,0
2927,congruent,1,0.533859492958,left,-0.6276225964460551,-0.7632250351855749,0.08561310854368913,0,0
2927,incongruent,1,0.635679812207,left,-0.45306028233654383,-0.5132426477217623,0.3058018699226363,0,0
2927,incongruent,1,0.530768150235,right,-0.6334299816495257,-0.5132426477217623,0.3058018699226363,0,0
2927,congruent,1,0.479653370892,right,-0.7346915799267595,-0.7632250351855749,0.08561310854368913,0,0
2927,incongruent,1,0.575872112676,left,-0.5518696695419678,-0.5132426477217623,0.3058018699226363,0,0
2927,congruent,1,0.491731192488,right,-0.7098230685287612,-0.7632250351855749,0.08561310854368913,0,0
2927,congruent,1,0.431754328639,left,-0.8398985362059546,-0.7632250351855749,0.08561310854368913,0,0
2927,incongruent,1,0.569824638498,right,-0.5624266172459466,-0.5132426477217623,0.3058018699226363,0,0
2927,congruent,1,0.449751624413,left,-0.7990597943447876,-0.7632250351855749,0.08561310854368913,0,0
2927,incongruent,1,0.567492319249,left,-0.5665280640811652,-0.5132426477217623,0.3058018699226363,0,0
2927,incongruent,1,0.568911474178,left,-0.5640304383693393,-0.5132426477217623,0.3058018699226363,0,0
2927,congruent,1,0.524712262911,left,-0.6449052372818432,-0.7632250351855749,0.08561310854368913,0,0
2927,congruent,1,0.483600187793,right,-0.7264967719185806,-0.7632250351855749,0.08561310854368913,0,0
2927,congruent,1,0.427691230047,right,-0.8493537688765007,-0.7632250351855749,0.08561310854368913,0,0
2927,incongruent,1,0.59977085446,right,-0.5112076059452283,-0.5132426477217623,0.3058018699226363,0,0
2927,incongruent,1,0.598869107981,left,-0.5127122223060634,-0.5132426477217623,0.3058018699226363,0,0
2927,incongruent,1,0.499704450704,right,-0.6937384539195914,-0.5132426477217623,0.3058018699226363,0,0
2927,congruent,1,0.447711962441,left,-0.8036051943222488,-0.7632250351855749,0.08561310854368913,0,0
2927,incongruent,1,0.493830046948,right,-0.7055638555058849,-0.5132426477217623,0.3058018699226363,0,0
2927,congruent,1,0.428621821596,left,-0.8471802835756279,-0.7632250351855749,0.08561310854368913,0,0
2927,incongruent,1,0.599623323944,left,-0.5114536143374658,-0.5132426477217623,0.3058018699226363,0,0
2927,incongruent,1,2.24988683568,right,0.8108799196981468,-0.5132426477217623,0.3058018699226363,0,0
2927,congruent,1,0.577686122066,right,-0.5487245992184513,-0.7632250351855749,0.08561310854368913,0,0
2927,congruent,1,0.448665389671,left,-0.8014779036509614,-0.7632250351855749,0.08561310854368913,0,0
2927,congruent,1,0.454504938967,right,-0.7885464986095655,-0.7632250351855749,0.08561310854368913,0,0
2927,incongruent,1,0.575780169014,left,-0.5520293421508919,-0.5132426477217623,0.3058018699226363,0,0
2942,incongruent,1,0.792490776332,right,-0.23257441199622328,-0.40103054448699554,0.12417189529911657,0,0
2942,incongruent,1,0.650496521312,left,-0.4300193287579423,-0.40103054448699554,0.12417189529911657,0,0
2942,congruent,1,0.716836189047,right,-0.3329079316441097,-0.5567029429064914,0.1263429490550334,0,0
2942,congruent,1,0.53353416896,right,-0.6282321635058571,-0.5567029429064914,0.1263429490550334,0,0
2942,congruent,1,0.522646744126,left,-0.6488494845722363,-0.5567029429064914,0.1263429490550334,0,0
2942,incongruent,1,0.646642984649,right,-0.43596093794026697,-0.40103054448699554,0.12417189529911657,0,0
2942,incongruent,1,0.672564819269,left,-0.39665678662081805,-0.40103054448699554,0.12417189529911657,0,0
2942,congruent,1,0.66742560326,left,-0.40432735070965276,-0.5567029429064914,0.1263429490550334,0,0
2942,incongruent,1,0.741815449429,left,-0.2986547871969081,-0.40103054448699554,0.12417189529911657,0,0
2942,congruent,1,0.631806331978,left,-0.45917236854028354,-0.5567029429064914,0.1263429490550334,0,0
2942,incongruent,1,0.605838530307,right,-0.5011417800559813,-0.40103054448699554,0.12417189529911657,0,0
2942,incongruent,1,0.75680292345,right,-0.2786523983423101,-0.40103054448699554,0.12417189529911657,0,0
2942,congruent,1,0.642806125254,right,-0.4419121161442674,-0.5567029429064914,0.1263429490550334,0,0
2942,congruent,1,0.579585897817,left,-0.5454413997201545,-0.5567029429064914,0.1263429490550334,0,0
2942,congruent,1,0.545711676822,right,-0.6056645071409273,-0.5567029429064914,0.1263429490550334,0,0
2942,incongruent,1,0.582746918308,left,-0.5400022892690133,-0.40103054448699554,0.12417189529911657,0,0
2942,congruent,1,0.528664339629,right,-0.6374015671757338,-0.5567029429064914,0.1263429490550334,0,0
2942,congruent,1,0.635706578453,left,-0.45301817673245576,-0.5567029429064914,0.1263429490550334,0,0
2942,congruent,1,0.515866966756,right,-0.6619063631052677,-0.5567029429064914,0.1263429490550334,0,0
2942,incongruent,1,0.660832244481,left,-0.41425526183843975,-0.40103054448699554,0.12417189529911657,0,0
2942,incongruent,1,0.549813769203,left,-0.5981756595431257,-0.40103054448699554,0.12417189529911657,0,0
2942,congruent,1,0.519562528488,left,-0.6547681128600846,-0.5567029429064914,0.1263429490550334,0,0
2942,incongruent,1,0.66480101727,right,-0.40826750525253874,-0.40103054448699554,0.12417189529911657,0,0
2942,incongruent,1,0.696552877403,right,-0.36161156990311133,-0.40103054448699554,0.12417189529911657,0,0
2942,incongruent,1,0.740760033208,right,-0.3000785479586988,-0.40103054448699554,0.12417189529911657,0,0
2942,incongruent,1,0.566703107427,right,-0.5679197324494425,-0.40103054448699554,0.12417189529911657,0,0
2942,congruent,1,0.553570855104,left,-0.5913655221917009,-0.5567029429064914,0.1263429490550334,0,0
2942,congruent,1,0.66872687578,left,-0.4023795596426602,-0.5567029429064914,0.1263429490550334,0,0
2942,congruent,1,0.790737257607,right,-0.2347895312392098,-0.5567029429064914,0.1263429490550334,0,0
2942,incongruent,1,0.702425182603,left,-0.353216385078678,-0.40103054448699554,0.12417189529911657,0,0
2942,incongruent,1,0.625825614919,left,-0.46868351710691736,-0.40103054448699554,0.12417189529911657,0,0
2942,congruent,1,0.528758836137,right,-0.6372228373910699,-0.5567029429064914,0.1263429490550334,0,0
2942,congruent,1,0.57474824999,right,-0.5538231601629684,-0.5567029429064914,0.1263429490550334,0,0
2942,incongruent,1,0.905812480789,right,-0.0989229692079856,-0.40103054448699554,0.12417189529911657,0,0
2942,incongruent,1,0.621700982506,right,-0.4752960373542255,-0.40103054448699554,0.12417189529911657,0,0
2942,congruent,1,0.569866457159,right,-0.5623532312886849,-0.5567029429064914,0.1263429490550334,0,0
2942,congruent,1,0.4696530612,left,-0.7557610245175022,-0.5567029429064914,0.1263429490550334,0,0
2942,incongruent,1,0.650732238562,left,-0.4296570292763335,-0.40103054448699554,0.12417189529911657,0,0
2942,congruent,1,0.53456617018100006,left,-0.6262997578987757,-0.5567029429064914,0.1263429490550334,0,0
2942,incongruent,1,0.639876689954,left,-0.4464797931389185,-0.40103054448699554,0.12417189529911657,0,0
2942,congruent,1,0.486648816165,right,-0.7202125327335734,-0.5567029429064914,0.1263429490550334,0,0
2942,congruent,1,0.519558093556,left,-0.6547766487930763,-0.5567029429064914,0.1263429490550334,0,0
2942,incongruent,1,0.629800269702,left,-0.4623525420809444,-0.40103054448699554,0.12417189529911657,0,0
2942,incongruent,1,0.546748757182,right,-0.603765892528895,-0.40103054448699554,0.12417189529911657,0,0
2942,congruent,1,0.554630016379,left,-0.5894540246920074,-0.5567029429064914,0.1263429490550334,0,0
2942,incongruent,1,0.777588705405,left,-0.2515575508835253,-0.40103054448699554,0.12417189529911657,0,0
2942,congruent,1,0.571877050518,right,-0.5588312573535337,-0.5567029429064914,0.1263429490550334,0,0
2942,incongruent,1,0.762745882289,right,-0.27083035390664917,-0.40103054448699554,0.12417189529911657,0,0
2948,congruent,1,0.562976284888,right,-0.5745177744862956,-0.7186456048933715,0.12655864506405937,0,0
2948,congruent,1,0.437413554635,right,-0.8268761821135406,-0.7186456048933715,0.12655864506405937,0,0
2948,incongruent,1,0.580817769493,left,-0.5433182210824701,-0.5930148849536565,0.14674849396357809,0,0
2948,congruent,1,0.45733008917,left,-0.7823498530411798,-0.7186456048933715,0.12655864506405937,0,0
2948,incongruent,1,0.565712523636,right,-0.5696692385786236,-0.5930148849536565,0.14674849396357809,0,0
2948,incongruent,0,0.422317029588,right,-0.8619989920490038,-0.5930148849536565,0.14674849396357809,0,0
2948,incongruent,1,0.651856063659,right,-0.4279315026860403,-0.5930148849536565,0.14674849396357809,0,0
2948,congruent,1,0.533502817948,left,-0.6282909262524042,-0.7186456048933715,0.12655864506405937,0,0
2948,congruent,1,0.545549027668,right,-0.6059626011793824,-0.7186456048933715,0.12655864506405937,0,0
2948,congruent,1,0.373648682399,left,-0.9844392749093924,-0.7186456048933715,0.12655864506405937,0,0
2948,congruent,1,0.573792556543,left,-0.55548734773407,-0.7186456048933715,0.12655864506405937,0,0
2948,congruent,1,0.462913001321,right,-0.7702161446661879,-0.7186456048933715,0.12655864506405937,0,0
2948,incongruent,1,0.495583701783,right,-0.7020190155971983,-0.5930148849536565,0.14674849396357809,0,0
2948,incongruent,1,0.552404843439,left,-0.5934740894930418,-0.5930148849536565,0.14674849396357809,0,0
2948,incongruent,1,0.602627688033,left,-0.5064557057261619,-0.5930148849536565,0.14674849396357809,0,0
2948,incongruent,1,0.519776900909,right,-0.6543555961827094,-0.5930148849536565,0.14674849396357809,0,0
2948,incongruent,0,0.414816538772,right,-0.879918931743702,-0.5930148849536565,0.14674849396357809,0,0
2948,incongruent,1,0.631706283497,right,-0.45933073416320447,-0.5930148849536565,0.14674849396357809,0,0
2948,incongruent,1,0.439761798138,right,-0.8215220665305057,-0.5930148849536565,0.14674849396357809,0,0
2948,congruent,1,0.478804034457,left,-0.7364638791496085,-0.7186456048933715,0.12655864506405937,0,0
2948,congruent,1,0.477519192303,right,-0.7391509265643693,-0.7186456048933715,0.12655864506405937,0,0
2948,congruent,1,0.445862448023,left,-0.8077447870354746,-0.7186456048933715,0.12655864506405937,0,0
2948,congruent,1,0.601511779134,right,-0.5083091608264783,-0.7186456048933715,0.12655864506405937,0,0
2948,incongruent,1,0.611748546256,left,-0.49143395303161164,-0.5930148849536565,0.14674849396357809,0,0
2948,congruent,1,0.520605282665,left,-0.6527631392103815,-0.7186456048933715,0.12655864506405937,0,0
2948,incongruent,1,0.558884093805,right,-0.5818131729343393,-0.5930148849536565,0.14674849396357809,0,0
2948,congruent,1,0.643799868755,right,-0.4403673639773445,-0.7186456048933715,0.12655864506405937,0,0
2948,incongruent,1,0.595740426383,right,-0.5179502329888905,-0.5930148849536565,0.14674849396357809,0,0
2948,congruent,1,0.503514464124,left,-0.6861428400782422,-0.7186456048933715,0.12655864506405937,0,0
2948,incongruent,1,0.563697014631,left,-0.5732383799331129,-0.5930148849536565,0.14674849396357809,0,0
2948,incongruent,1,0.587498356585,left,-0.531881830269863,-0.5930148849536565,0.14674849396357809,0,0
2948,congruent,1,0.453843859812,right,-0.7900020612141633,-0.7186456048933715,0.12655864506405937,0,0
2948,incongruent,1,0.529789441281,right,-0.635275631974702,-0.5930148849536565,0.14674849396357809,0,0
2948,incongruent,1,0.533738190895,left,-0.6278498394709447,-0.5930148849536565,0.14674849396357809,0,0
2948,congruent,1,0.424861750935,right,-0.8559914548942594,-0.7186456048933715,0.12655864506405937,0,0
2948,congruent,1,0.432431111636,left,-0.8383322447508577,-0.7186456048933715,0.12655864506405937,0,0
2948,incongruent,0,0.465689502907,right,-0.7642361697095161,-0.5930148849536565,0.14674849396357809,0,0
2948,incongruent,1,0.550797676534,right,-0.5963877304843922,-0.5930148849536565,0.14674849396357809,0,0
2948,congruent,1,0.457886579284,left,-0.7811337690213793,-0.7186456048933715,0.12655864506405937,0,0
2948,congruent,1,0.484776586018,right,-0.7240671415608215,-0.7186456048933715,0.12655864506405937,0,0
2948,incongruent,1,0.704578307765,right,-0.3501558001441481,-0.5930148849536565,0.14674849396357809,0,0
2948,incongruent,1,0.602686668884,left,-0.5063578377289734,-0.5930148849536565,0.14674849396357809,0,0
2948,congruent,1,0.459531468263,left,-0.7775478558250949,-0.7186456048933715,0.12655864506405937,0,0
2948,congruent,1,0.464632050842,right,-0.7665094751406131,-0.7186456048933715,0.12655864506405937,0,0
2948,congruent,1,0.438772646269,left,-0.8237738901061716,-0.7186456048933715,0.12655864506405937,0,0
2948,incongruent,0,0.483713016405,right,-0.7262634894367082,-0.5930148849536565,0.14674849396357809,0,0
2948,congruent,1,0.553743096951,right,-0.5910544237032017,-0.7186456048933715,0.12655864506405937,0,0
2948,incongruent,1,0.733799772605,right,-0.3095190769478936,-0.5930148849536565,0.14674849396357809,0,0
2950,congruent,1,0.461970663379,right,-0.7722538890962102,-0.8802363926034297,0.11292031960971553,0,0
2950,incongruent,1,0.508595810196,right,-0.676101663943897,-0.7968173540233887,0.1473376159211269,0,0
2950,congruent,1,0.434729040689,left,-0.8330323369409379,-0.8802363926034297,0.11292031960971553,0,0
2950,congruent,1,0.476705041604,left,-0.7408573407752588,-0.8802363926034297,0.11292031960971553,0,0
2950,congruent,1,0.436558455852,right,-0.8288329931912297,-0.8802363926034297,0.11292031960971553,0,0
2950,incongruent,1,0.56568014592,left,-0.5697264737311573,-0.7968173540233887,0.1473376159211269,0,0
2950,incongruent,1,0.541539228221,right,-0.6133397715435822,-0.7968173540233887,0.1473376159211269,0,0
2950,incongruent,1,0.425601422963,left,-0.8542519975321902,-0.7968173540233887,0.1473376159211269,0,0
2950,incongruent,1,0.508578065681,right,-0.676136553780183,-0.7968173540233887,0.1473376159211269,0,0
2950,congruent,1,0.500362631594,left,-0.692422180248196,-0.8802363926034297,0.11292031960971553,0,0
2950,congruent,1,0.423799396177,right,-0.8584950579318698,-0.8802363926034297,0.11292031960971553,0,0
2950,incongruent,1,0.382563943624,left,-0.9608594668141716,-0.7968173540233887,0.1473376159211269,0,0
2950,incongruent,1,0.393759640482,left,-0.9320146053782071,-0.7968173540233887,0.1473376159211269,0,0
2950,congruent,1,0.524863412965,left,-0.6446172160204534,-0.8802363926034297,0.11292031960971553,0,0
2950,incongruent,1,0.444392654487,right,-0.8110467504104242,-0.7968173540233887,0.1473376159211269,0,0
2950,congruent,1,0.349458548607,right,-1.0513703263248761,-0.8802363926034297,0.11292031960971553,0,0
2950,incongruent,1,0.413671420291,right,-0.8826832910749209,-0.7968173540233887,0.1473376159211269,0,0
2950,congruent,1,0.373216644377,right,-0.985596211922536,-0.8802363926034297,0.11292031960971553,0,0
2950,incongruent,1,0.372536322081,right,-0.9874207369739288,-0.7968173540233887,0.1473376159211269,0,0
2950,incongruent,1,0.39776967135,left,-0.9218821564189804,-0.7968173540233887,0.1473376159211269,0,0
2950,congruent,1,0.394564292168,left,-0.929973180699552,-0.8802363926034297,0.11292031960971553,0,0
2950,incongruent,1,0.567616266146,left,-0.5663096763443665,-0.7968173540233887,0.1473376159211269,0,0
2950,congruent,1,0.479043963467,right,-0.7359629040146434,-0.8802363926034297,0.11292031960971553,0,0
2950,congruent,1,0.37457196976,left,-0.9819713188941014,-0.8802363926034297,0.11292031960971553,0,0
2950,congruent,1,0.376577827709,left,-0.9766305394019991,-0.8802363926034297,0.11292031960971553,0,0
2950,incongruent,1,0.372546081324,left,-0.9873945405614086,-0.7968173540233887,0.1473376159211269,0,0
2950,congruent,1,0.395544088612,right,-0.9274930223565279,-0.8802363926034297,0.11292031960971553,0,0
2950,incongruent,1,0.434475812371,left,-0.8336150035569209,-0.7968173540233887,0.1473376159211269,0,0
2950,congruent,1,0.474587647046,right,-0.7453089634565906,-0.8802363926034297,0.11292031960971553,0,0
2950,incongruent,1,0.454729807486,right,-0.788051866118975,-0.7968173540233887,0.1473376159211269,0,0
2950,congruent,1,0.367624066329,left,-1.0006944218487073,-0.8802363926034297,0.11292031960971553,0,0
2950,incongruent,1,0.419609593324,right,-0.8684305396994242,-0.7968173540233887,0.1473376159211269,0,0
2950,congruent,1,0.425336553263,left,-0.8548745334066118,-0.8802363926034297,0.11292031960971553,0,0
2950,incongruent,1,0.445677564288,right,-0.8081595384433694,-0.7968173540233887,0.1473376159211269,0,0
2950,congruent,1,0.410667175261,left,-0.8899721850973212,-0.8802363926034297,0.11292031960971553,0,0
2950,incongruent,1,0.39373776151,left,-0.9320701712047109,-0.7968173540233887,0.1473376159211269,0,0
2950,congruent,1,0.416602418117,right,-0.8756229457626055,-0.8802363926034297,0.11292031960971553,0,0
2950,incongruent,1,0.420628001275,right,-0.8660064433337122,-0.7968173540233887,0.1473376159211269,0,0
2950,incongruent,1,0.44266741804,left,-0.8149365402357901,-0.7968173540233887,0.1473376159211269,0,0
2950,congruent,1,0.365539958962,right,-1.0063796789226307,-0.8802363926034297,0.11292031960971553,0,0
2950,incongruent,1,0.453633878455,right,-0.790464841405661,-0.7968173540233887,0.1473376159211269,0,0
2950,congruent,1,0.377409391829,left,-0.9744247607478959,-0.8802363926034297,0.11292031960971553,0,0
2950,incongruent,1,0.603328911727,right,-0.5052927720465117,-0.7968173540233887,0.1473376159211269,0,0
2950,congruent,1,0.406304677075,right,-0.9006519646714971,-0.8802363926034297,0.11292031960971553,0,0
2950,incongruent,1,0.572547629342,left,-0.5576593516570789,-0.7968173540233887,0.1473376159211269,0,0
2950,congruent,1,0.41039777208,left,-0.8906284137952832,-0.8802363926034297,0.11292031960971553,0,0
2950,congruent,1,0.357862288008,right,-1.027607036954777,-0.8802363926034297,0.11292031960971553,0,0
2950,incongruent,1,0.398614001809,left,-0.9197617443517576,-0.7968173540233887,0.1473376159211269,0,0
2974,incongruent,1,0.824483042284,left,-0.19299870446627887,-0.4643683939493228,0.22701372045638266,0,0
2974,incongruent,1,0.700922768665,right,-0.3553575711054925,-0.4643683939493228,0.22701372045638266,0,0
2974,incongruent,1,0.645765062433,left,-0.4373195217915786,-0.4643683939493228,0.22701372045638266,0,0
2974,congruent,1,0.551670645476,right,-0.59480406752189,-0.6427861255288002,0.14138282310584255,0,0
2974,congruent,1,0.380814959507,left,-0.9654416924168966,-0.6427861255288002,0.14138282310584255,0,0
2974,congruent,1,0.613641497585,right,-0.48834440151411573,-0.6427861255288002,0.14138282310584255,0,0
2974,incongruent,0,0.560736392888,left,-0.5785043717915334,-0.4643683939493228,0.22701372045638266,0,0
2974,congruent,1,0.598714566824,left,-0.5129703105901793,-0.6427861255288002,0.14138282310584255,0,0
2974,congruent,1,0.471599941529,right,-0.7516242343032377,-0.6427861255288002,0.14138282310584255,0,0
2974,incongruent,1,0.791514899203,left,-0.23380657582939568,-0.4643683939493228,0.22701372045638266,0,0
2974,incongruent,0,0.454589687125,left,-0.7883600534237442,-0.4643683939493228,0.22701372045638266,0,0
2974,incongruent,1,0.593705519104,right,-0.5213718416328325,-0.4643683939493228,0.22701372045638266,0,0
2974,congruent,1,0.497726061564,left,-0.697705430486164,-0.6427861255288002,0.14138282310584255,0,0
2974,congruent,1,0.530697134818,left,-0.6335637880360482,-0.6427861255288002,0.14138282310584255,0,0
2974,incongruent,0,0.471822692376,right,-0.7511520157171363,-0.4643683939493228,0.22701372045638266,0,0
2974,congruent,1,0.602785499128,right,-0.5061938683784667,-0.6427861255288002,0.14138282310584255,0,0
2974,incongruent,1,0.9377669638,right,-0.06425380028773278,-0.4643683939493228,0.22701372045638266,0,0
2974,congruent,1,0.570735193416,right,-0.5608299362372553,-0.6427861255288002,0.14138282310584255,0,0
2974,incongruent,1,0.565871906785,left,-0.569387539492335,-0.4643683939493228,0.22701372045638266,0,0
2974,incongruent,1,1.10668394543,left,0.10136810747876193,-0.4643683939493228,0.22701372045638266,0,0
2974,incongruent,1,0.629711941928,right,-0.4624927991952927,-0.4643683939493228,0.22701372045638266,0,0
2974,congruent,1,0.679417544862,right,-0.38651939953551195,-0.6427861255288002,0.14138282310584255,0,0
2974,congruent,1,0.631529146239,left,-0.4596111842756558,-0.6427861255288002,0.14138282310584255,0,0
2974,congruent,1,0.453817848817,left,-0.7900593755081559,-0.6427861255288002,0.14138282310584255,0,0
2974,congruent,1,0.580802195587,left,-0.5433450351980487,-0.6427861255288002,0.14138282310584255,0,0
2974,congruent,1,0.507750613482,left,-0.677764870286036,-0.6427861255288002,0.14138282310584255,0,0
2974,congruent,1,0.479655369635,right,-0.7346874128783099,-0.6427861255288002,0.14138282310584255,0,0
2974,incongruent,0,0.430872305808,left,-0.8419435070036471,-0.4643683939493228,0.22701372045638266,0,0
2974,incongruent,1,0.673810964472,right,-0.3948056755508084,-0.4643683939493228,0.22701372045638266,0,0
2974,incongruent,1,0.62941990775,left,-0.46295666512531597,-0.4643683939493228,0.22701372045638266,0,0
2974,incongruent,1,0.671796866469,left,-0.397799266195591,-0.4643683939493228,0.22701372045638266,0,0
2974,congruent,1,0.59371826619800006,right,-0.5213503714649643,-0.6427861255288002,0.14138282310584255,0,0
2974,congruent,1,0.585835977911,right,-0.5347154297605377,-0.6427861255288002,0.14138282310584255,0,0
2974,incongruent,1,0.565871834672,left,-0.5693876669293111,-0.4643683939493228,0.22701372045638266,0,0
2974,congruent,1,0.450674078034,right,-0.7970108658408445,-0.6427861255288002,0.14138282310584255,0,0
2974,incongruent,1,0.719722828518,right,-0.3288891014799762,-0.4643683939493228,0.22701372045638266,0,0
2974,congruent,1,0.425649307374,left,-0.8541394938729415,-0.6427861255288002,0.14138282310584255,0,0
2974,congruent,1,0.49185883278,left,-0.7095635289046547,-0.6427861255288002,0.14138282310584255,0,0
2974,incongruent,1,0.5786273467,right,-0.5470966239897582,-0.4643683939493228,0.22701372045638266,0,0
2974,incongruent,1,0.641612049225,left,-0.44377144264202145,-0.4643683939493228,0.22701372045638266,0,0
2974,congruent,1,0.51786036397,left,-0.6580496406880197,-0.6427861255288002,0.14138282310584255,0,0
2974,congruent,1,0.548781126704,right,-0.6000555932784332,-0.6427861255288002,0.14138282310584255,0,0
2974,incongruent,0,0.431834040487,left,-0.8397139300878635,-0.4643683939493228,0.22701372045638266,0,0
2974,congruent,1,0.441796741474,right,-0.8169053635914503,-0.6427861255288002,0.14138282310584255,0,0
2974,congruent,1,0.531734104517,left,-0.6316117181233886,-0.6427861255288002,0.14138282310584255,0,0
2974,incongruent,1,0.688818081981,left,-0.3727780747889625,-0.4643683939493228,0.22701372045638266,0,0
2974,incongruent,1,0.574716939327,right,-0.5538776388253911,-0.4643683939493228,0.22701372045638266,0,0
2974,incongruent,1,0.583806798771,left,-0.5381851749105092,-0.4643683939493228,0.22701372045638266,0,0
2976,incongruent,1,0.538400375587,right,-0.6191528030534225,-0.48885528749305796,0.11531079203276959,0,0
2976,congruent,1,0.622463173709,left,-0.474070811093621,-0.6118936514148995,0.16231773541557015,0,0
2976,incongruent,1,0.621799399061,left,-0.4751377478085778,-0.48885528749305796,0.11531079203276959,0,0
2976,congruent,1,0.420527173709,right,-0.866246179281327,-0.6118936514148995,0.16231773541557015,0,0
2976,incongruent,1,0.614786178404,left,-0.48648074902128624,-0.48885528749305796,0.11531079203276959,0,0
2976,incongruent,1,0.614711361502,right,-0.4866024522368909,-0.48885528749305796,0.11531079203276959,0,0
2976,congruent,1,0.523812920188,right,-0.6466206809508008,-0.6118936514148995,0.16231773541557015,0,0
2976,congruent,1,0.700686122066,left,-0.3556952496159724,-0.6118936514148995,0.16231773541557015,0,0
2976,congruent,1,0.483631737089,right,-0.7264315356599346,-0.6118936514148995,0.16231773541557015,0,0
2976,incongruent,1,0.737833953052,left,-0.3040364755615301,-0.48885528749305796,0.11531079203276959,0,0
2976,congruent,1,0.513814723005,left,-0.6658925395884496,-0.6118936514148995,0.16231773541557015,0,0
2976,congruent,1,0.574772657277,right,-0.5537806950162287,-0.6118936514148995,0.16231773541557015,0,0
2976,incongruent,1,0.631498929577,right,-0.4596590322413255,-0.48885528749305796,0.11531079203276959,0,0
2976,incongruent,1,0.592533183099,right,-0.5233484023107053,-0.48885528749305796,0.11531079203276959,0,0
2976,incongruent,1,0.688786178404,left,-0.37282439226622816,-0.48885528749305796,0.11531079203276959,0,0
2976,congruent,1,0.520714366197,left,-0.652553629032564,-0.6118936514148995,0.16231773541557015,0,0
2976,congruent,1,0.620849877934,right,-0.4766659687304029,-0.6118936514148995,0.16231773541557015,0,0
2976,congruent,1,0.507685521127,right,-0.6778930759956235,-0.6118936514148995,0.16231773541557015,0,0
2976,incongruent,1,0.630745314554,right,-0.4608531198611328,-0.48885528749305796,0.11531079203276959,0,0
2976,incongruent,1,0.605665389671,left,-0.5014276076696169,-0.48885528749305796,0.11531079203276959,0,0
2976,incongruent,1,0.616685521127,right,-0.4833960752447353,-0.48885528749305796,0.11531079203276959,0,0
2976,incongruent,1,0.730536187793,left,-0.31397651062959353,-0.48885528749305796,0.11531079203276959,0,0
2976,congruent,1,0.539709859155,left,-0.6167235816811487,-0.6118936514148995,0.16231773541557015,0,0
2976,congruent,1,0.794791586854,left,-0.2296753535970368,-0.6118936514148995,0.16231773541557015,0,0
2976,incongruent,1,0.571709258216,left,-0.559124706657574,-0.48885528749305796,0.11531079203276959,0,0
2976,congruent,1,0.519749821596,left,-0.6544076954937128,-0.6118936514148995,0.16231773541557015,0,0
2976,incongruent,1,0.825545502347,right,-0.1917108961876967,-0.48885528749305796,0.11531079203276959,0,0
2976,congruent,1,0.492830046948,right,-0.7075908967303035,-0.6118936514148995,0.16231773541557015,0,0
2976,incongruent,1,0.621669896714,left,-0.47534603979923373,-0.48885528749305796,0.11531079203276959,0,0
2976,congruent,1,0.482843868545,left,-0.7280619311172694,-0.6118936514148995,0.16231773541557015,0,0
2976,congruent,1,0.488713464789,right,-0.7159789228265298,-0.6118936514148995,0.16231773541557015,0,0
2976,incongruent,1,0.57477686385,right,-0.5537733763702326,-0.48885528749305796,0.11531079203276959,0,0
2976,congruent,1,0.448790384977,right,-0.8011993488511836,-0.6118936514148995,0.16231773541557015,0,0
2976,congruent,1,0.491649464789,right,-0.7099892863582118,-0.6118936514148995,0.16231773541557015,0,0
2976,incongruent,1,0.601839661972,left,-0.5077642113879121,-0.48885528749305796,0.11531079203276959,0,0
2976,congruent,1,0.490800300469,left,-0.7117179539430416,-0.6118936514148995,0.16231773541557015,0,0
2976,incongruent,1,0.686789483568,right,-0.37572746229503645,-0.48885528749305796,0.11531079203276959,0,0
2976,congruent,1,0.517755230047,left,-0.6582526772663961,-0.6118936514148995,0.16231773541557015,0,0
2976,incongruent,0,0.50282914554,right,-0.687504837478255,-0.48885528749305796,0.11531079203276959,0,0
2976,incongruent,1,0.520795492958,right,-0.6523978421997251,-0.48885528749305796,0.11531079203276959,0,0
2976,incongruent,1,0.530786178404,right,-0.6333960160417083,-0.48885528749305796,0.11531079203276959,0,0
2976,incongruent,1,0.604861596244,left,-0.5027556136611946,-0.48885528749305796,0.11531079203276959,0,0
2976,incongruent,1,0.588853183099,right,-0.5295783910897621,-0.48885528749305796,0.11531079203276959,0,0
2976,congruent,1,0.717746215962,left,-0.33163923207845586,-0.6118936514148995,0.16231773541557015,0,0
2976,congruent,1,0.442760037559,right,-0.8147273316354645,-0.6118936514148995,0.16231773541557015,0,0
2976,incongruent,1,0.561832150235,left,-0.5765521387600157,-0.48885528749305796,0.11531079203276959,0,0
2976,congruent,1,0.607749821596,right,-0.4979919593342814,-0.6118936514148995,0.16231773541557015,0,0
2976,congruent,1,0.662562028169,left,-0.4116410980796279,-0.6118936514148995,0.16231773541557015,0,0
2978,incongruent,1,0.65068371831,right,-0.4297315946015337,-0.4825875011609137,0.14098124850933522,0,0
2978,congruent,1,0.480611605634,right,-0.7326958077524389,-0.6379888673050688,0.1244912674099089,0,0
2978,congruent,1,0.542713164319,left,-0.6111743411238733,-0.6379888673050688,0.1244912674099089,0,0
2978,congruent,1,0.494761539906,left,-0.7036793700499024,-0.6379888673050688,0.1244912674099089,0,0
2978,congruent,1,0.473812920188,right,-0.7469427183426335,-0.6379888673050688,0.1244912674099089,0,0
2978,incongruent,1,0.710619117371,left,-0.34161869261749295,-0.4825875011609137,0.14098124850933522,0,0
2978,incongruent,1,0.491719774648,left,-0.7098462884764395,-0.4825875011609137,0.14098124850933522,0,0
2978,incongruent,1,0.549610403756,right,-0.5985456085661166,-0.4825875011609137,0.14098124850933522,0,0
2978,congruent,1,0.457760638498,right,-0.7814088548499569,-0.6379888673050688,0.1244912674099089,0,0
2978,incongruent,1,0.948832751174,left,-0.0525227328120825,-0.4825875011609137,0.14098124850933522,0,0
2978,congruent,1,0.562514253521,left,-0.5753388056317149,-0.6379888673050688,0.1244912674099089,0,0
2978,congruent,1,0.730817126761,right,-0.31359201911934337,-0.6379888673050688,0.1244912674099089,0,0
2978,incongruent,1,0.576862197183,right,-0.5501518673702142,-0.4825875011609137,0.14098124850933522,0,0
