participant_id,trial_type,resp_corr,rt,response,log_rt,mean_log_rt,sd_log_rt,exclude_trial,exclude_part,school,group
1903,congruent,1,0.84131102909,1,-0.1727938549308877,-0.0689568798047287,0.1629053918167526,0,0,UIC,rMDD
1903,incongruent,1,1.1058561647,-1,0.1006198446429085,0.0107272131224115,0.1426695169675775,0,0,UIC,rMDD
1903,incongruent,1,1.15182628362,1,0.1413487554341696,0.0107272131224115,0.1426695169675775,0,0,UIC,rMDD
1903,congruent,1,0.710728335406,-1,-0.3414650102296974,-0.0689568798047287,0.1629053918167526,0,0,UIC,rMDD
1903,incongruent,1,0.956794614146,1,-0.0441665248296228,0.0107272131224115,0.1426695169675775,0,0,UIC,rMDD
1903,congruent,1,0.96581809643,1,-0.0347797684744996,-0.0689568798047287,0.1629053918167526,0,0,UIC,rMDD
1903,congruent,1,1.13368283713,-1,0.1254714811158501,-0.0689568798047287,0.1629053918167526,0,0,UIC,rMDD
1903,incongruent,1,0.989884639584,-1,-0.0101668683158723,0.0107272131224115,0.1426695169675775,0,0,UIC,rMDD
1903,congruent,1,0.862870572809,1,-0.1474905727159737,-0.0689568798047287,0.1629053918167526,0,0,UIC,rMDD
1903,incongruent,1,0.929874575061,-1,-0.0727055674558146,0.0107272131224115,0.1426695169675775,0,0,UIC,rMDD
1903,congruent,1,0.972822053011,1,-0.0275540984023921,-0.0689568798047287,0.1629053918167526,0,0,UIC,rMDD
1903,congruent,1,1.02345353812,-1,0.0231827299935573,-0.0689568798047287,0.1629053918167526,0,0,UIC,rMDD
1903,incongruent,1,1.08488744717,1,0.0814762462843528,0.0107272131224115,0.1426695169675775,0,0,UIC,rMDD
1903,incongruent,1,1.00165791019,1,0.0016565373740286,0.0107272131224115,0.1426695169675775,0,0,UIC,rMDD
1903,congruent,1,0.780831797835,-1,-0.2473955200262625,-0.0689568798047287,0.1629053918167526,0,0,UIC,rMDD
1903,incongruent,1,1.18875610599,-1,0.1729074713437666,0.0107272131224115,0.1426695169675775,0,0,UIC,rMDD
1903,incongruent,1,0.863864258144,-1,-0.1463396311505646,0.0107272131224115,0.1426695169675775,0,0,UIC,rMDD
1903,congruent,1,0.710887762062,-1,-0.3412407209058042,-0.0689568798047287,0.1629053918167526,0,0,UIC,rMDD
1903,incongruent,1,0.971875644732,-1,-0.0285274202249188,0.0107272131224115,0.1426695169675775,0,0,UIC,rMDD
1903,congruent,1,0.916752012394,-1,-0.08691827689376,-0.0689568798047287,0.1629053918167526,0,0,UIC,rMDD
1903,congruent,1,0.843837994715,1,-0.1697947522006322,-0.0689568798047287,0.1629053918167526,0,0,UIC,rMDD
1903,incongruent,1,1.14465795345,1,0.135105861765972,0.0107272131224115,0.1426695169675775,0,0,UIC,rMDD
1903,incongruent,1,0.889753666177,1,-0.1168106341428921,0.0107272131224115,0.1426695169675775,0,0,UIC,rMDD
1903,congruent,1,0.907687856169,1,-0.0968547302225365,-0.0689568798047287,0.1629053918167526,0,0,UIC,rMDD
1903,congruent,1,0.984327932296,-1,-0.0157961729217163,-0.0689568798047287,0.1629053918167526,0,0,UIC,rMDD
1903,incongruent,1,1.1198557176,1,0.1131998534371055,0.0107272131224115,0.1426695169675775,0,0,UIC,rMDD
1903,incongruent,1,0.905867794068,-1,-0.0988619062491569,0.0107272131224115,0.1426695169675775,0,0,UIC,rMDD
1903,congruent,1,0.808813611023,1,-0.2121867827540237,-0.0689568798047287,0.1629053918167526,0,0,UIC,rMDD
1903,congruent,1,0.850648768706,1,-0.1617559633293222,-0.0689568798047287,0.1629053918167526,0,0,UIC,rMDD
1903,congruent,1,0.853788494186,-1,-0.1580717807551679,-0.0689568798047287,0.1629053918167526,0,0,UIC,rMDD
1903,incongruent,1,0.867756569914,1,-0.1418440530629103,0.0107272131224115,0.1426695169675775,0,0,UIC,rMDD
1903,incongruent,1,0.932778561869,-1,-0.0695874462089744,0.0107272131224115,0.1426695169675775,0,0,UIC,rMDD
1903,incongruent,1,0.872854227274,-1,-0.1359867161526745,0.0107272131224115,0.1426695169675775,0,0,UIC,rMDD
1903,incongruent,1,0.881815976318,1,-0.1257718883748415,0.0107272131224115,0.1426695169675775,0,0,UIC,rMDD
1903,incongruent,1,0.813807921335,-1,-0.2060309097005537,0.0107272131224115,0.1426695169675775,0,0,UIC,rMDD
1903,incongruent,1,0.908795133357,1,-0.0956355860504949,0.0107272131224115,0.1426695169675775,0,0,UIC,rMDD
1903,congruent,1,0.952773374566,-1,-0.0483782057416585,-0.0689568798047287,0.1629053918167526,0,0,UIC,rMDD
1903,congruent,1,1.28080288306,1,0.2474871336815945,-0.0689568798047287,0.1629053918167526,0,0,UIC,rMDD
1903,congruent,1,1.18677279286,1,0.1712376843824032,-0.0689568798047287,0.1629053918167526,0,0,UIC,rMDD
1903,congruent,1,1.16951508627,-1,0.1565892067194768,-0.0689568798047287,0.1629053918167526,0,0,UIC,rMDD
1903,congruent,1,0.949664073416,1,-0.0516469638517494,-0.0689568798047287,0.1629053918167526,0,0,UIC,rMDD
1903,congruent,1,0.892828394117,-1,-0.1133608844143488,-0.0689568798047287,0.1629053918167526,0,0,UIC,rMDD
1903,congruent,1,0.834644283299,-1,-0.1807496529236293,-0.0689568798047287,0.1629053918167526,0,0,UIC,rMDD
1903,congruent,1,1.2577197516,1,0.2293003604876912,-0.0689568798047287,0.1629053918167526,0,0,UIC,rMDD
1903,incongruent,1,1.37285408305,1,0.3168918451366829,0.0107272131224115,0.1426695169675775,0,0,UIC,rMDD
1903,incongruent,1,1.35279974857,1,0.302176332743257,0.0107272131224115,0.1426695169675775,0,0,UIC,rMDD
1903,incongruent,1,1.11579915484,-1,0.1095708789814327,0.0107272131224115,0.1426695169675775,0,0,UIC,rMDD
1903,incongruent,1,1.07781370237,-1,0.0749346397134921,0.0107272131224115,0.1426695169675775,0,0,UIC,rMDD
1912,incongruent,1,0.715646996538,-1,-0.3345682551915711,-0.3350010556337015,0.1498145580431084,0,0,UIC,rMDD
1912,incongruent,1,0.86465446801,-1,-0.1454253108032134,-0.3350010556337015,0.1498145580431084,0,0,UIC,rMDD
1912,congruent,1,0.682816065257,-1,-0.3815297598427429,-0.4944870038250621,0.2240699389717446,0,0,UIC,rMDD
1912,incongruent,1,0.834621469259,1,-0.1807769871452371,-0.3350010556337015,0.1498145580431084,0,0,UIC,rMDD
1912,congruent,1,0.678664890692,1,-0.3876278068418036,-0.4944870038250621,0.2240699389717446,0,0,UIC,rMDD
1912,incongruent,1,0.786613145055,1,-0.2400187078921749,-0.3350010556337015,0.1498145580431084,0,0,UIC,rMDD
1912,congruent,1,0.565632959209,-1,-0.5698098930972257,-0.4944870038250621,0.2240699389717446,0,0,UIC,rMDD
1912,congruent,1,0.680761600973,1,-0.3845431061147868,-0.4944870038250621,0.2240699389717446,0,0,UIC,rMDD
1912,congruent,1,0.528847107351,-1,-0.6370559109195453,-0.4944870038250621,0.2240699389717446,0,0,UIC,rMDD
1912,incongruent,1,0.696595414957,1,-0.3615505031031928,-0.3350010556337015,0.1498145580431084,0,0,UIC,rMDD
1912,incongruent,1,0.716670275104,-1,-0.3331394115123767,-0.3350010556337015,0.1498145580431084,0,0,UIC,rMDD
1912,congruent,1,0.578387389179,1,-0.547511411316141,-0.4944870038250621,0.2240699389717446,0,0,UIC,rMDD
1912,congruent,1,0.536777196536,1,-0.6221721745995599,-0.4944870038250621,0.2240699389717446,0,0,UIC,rMDD
1912,congruent,1,0.609605938597,-1,-0.4949425328641725,-0.4944870038250621,0.2240699389717446,0,0,UIC,rMDD
1912,incongruent,1,0.588715924818,-1,-0.5298115124933365,-0.3350010556337015,0.1498145580431084,0,0,UIC,rMDD
1912,incongruent,1,0.858646117365,1,-0.1523984123525086,-0.3350010556337015,0.1498145580431084,0,0,UIC,rMDD
1912,congruent,1,0.590712033138,1,-0.5264266338962401,-0.4944870038250621,0.2240699389717446,0,0,UIC,rMDD
1912,incongruent,1,0.661794380982,-1,-0.412800374038376,-0.3350010556337015,0.1498145580431084,0,0,UIC,rMDD
1912,congruent,1,0.554772838528,1,-0.5891965489713397,-0.4944870038250621,0.2240699389717446,0,0,UIC,rMDD
1912,congruent,1,0.550791224851,-1,-0.5963994438976119,-0.4944870038250621,0.2240699389717446,0,0,UIC,rMDD
1912,congruent,1,0.538781816554,-1,-0.6184445830592071,-0.4944870038250621,0.2240699389717446,0,0,UIC,rMDD
1912,incongruent,1,0.853838530753,1,-0.1580131771300396,-0.3350010556337015,0.1498145580431084,0,0,UIC,rMDD
1912,incongruent,1,0.808827829235,1,-0.2121692038126755,-0.3350010556337015,0.1498145580431084,0,0,UIC,rMDD
1912,incongruent,1,0.737829300333,-1,-0.3040427814975074,-0.3350010556337015,0.1498145580431084,0,0,UIC,rMDD
1912,congruent,1,0.542823283734,-1,-0.6109714563371389,-0.4944870038250621,0.2240699389717446,0,0,UIC,rMDD
1912,congruent,1,0.743761759621,1,-0.296034510992168,-0.4944870038250621,0.2240699389717446,0,0,UIC,rMDD
1912,incongruent,1,0.688736500962,1,-0.3728965180363017,-0.3350010556337015,0.1498145580431084,0,0,UIC,rMDD
1912,incongruent,1,0.70671344895,1,-0.3471300008310612,-0.3350010556337015,0.1498145580431084,0,0,UIC,rMDD
1912,congruent,1,1.48061357533,1,0.3924565797880156,-0.4944870038250621,0.2240699389717446,0,0,UIC,rMDD
1912,incongruent,1,0.698808156903,-1,-0.3583790280613974,-0.3350010556337015,0.1498145580431084,0,0,UIC,rMDD
1912,incongruent,1,0.786741839702,-1,-0.2398551152528356,-0.3350010556337015,0.1498145580431084,0,0,UIC,rMDD
1912,congruent,1,0.589889848521,-1,-0.5278194569345389,-0.4944870038250621,0.2240699389717446,0,0,UIC,rMDD
1912,congruent,1,0.509496156696,-1,-0.6743329696333823,-0.4944870038250621,0.2240699389717446,0,0,UIC,rMDD
1912,incongruent,1,0.658638206606,-1,-0.4175808988700813,-0.3350010556337015,0.1498145580431084,0,0,UIC,rMDD
1912,incongruent,1,0.586722210637,1,-0.5332038068774955,-0.3350010556337015,0.1498145580431084,0,0,UIC,rMDD
1912,congruent,1,0.570715581081,1,-0.5608643001107401,-0.4944870038250621,0.2240699389717446,0,0,UIC,rMDD
1912,incongruent,0,0.440635521612,1,-0.8195372268649542,-0.3350010556337015,0.1498145580431084,0,0,UIC,rMDD
1912,congruent,1,0.808734801507,1,-0.2122842259160978,-0.4944870038250621,0.2240699389717446,0,0,UIC,rMDD
1912,incongruent,1,0.818798988981,1,-0.1999166599527263,-0.3350010556337015,0.1498145580431084,0,0,UIC,rMDD
1912,congruent,1,0.588810036639,-1,-0.529651665790536,-0.4944870038250621,0.2240699389717446,0,0,UIC,rMDD
1912,congruent,1,0.545566853539,1,-0.6059299266095981,-0.4944870038250621,0.2240699389717446,0,0,UIC,rMDD
1912,incongruent,1,0.719643922736,-1,-0.3289987410586454,-0.3350010556337015,0.1498145580431084,0,0,UIC,rMDD
1912,incongruent,1,0.761758531378,-1,-0.2721256614704691,-0.3350010556337015,0.1498145580431084,0,0,UIC,rMDD
1912,congruent,1,0.509613707534,-1,-0.6741022764713449,-0.4944870038250621,0.2240699389717446,0,0,UIC,rMDD
1912,incongruent,1,0.690846357379,1,-0.3698378281589159,-0.3350010556337015,0.1498145580431084,0,0,UIC,rMDD
1912,incongruent,1,0.659779749324,1,-0.4158492128017432,-0.3350010556337015,0.1498145580431084,0,0,UIC,rMDD
1912,congruent,1,0.584576970944,1,-0.5368668199238795,-0.4944870038250621,0.2240699389717446,0,0,UIC,rMDD
1912,congruent,1,0.508837148593,-1,-0.6756272574497069,-0.4944870038250621,0.2240699389717446,0,0,UIC,rMDD
1917,incongruent,1,0.764127448562,1,-0.269020686238578,-0.2224111986870222,0.2031937973305652,0,0,UIC,HC
1917,congruent,1,0.612357376987,-1,-0.4904392175767089,-0.3832453552473552,0.2416505552596279,0,0,UIC,HC
1917,incongruent,1,0.75449250885,-1,-0.2817099294517532,-0.2224111986870222,0.2031937973305652,0,0,UIC,HC
1917,congruent,1,0.502698779824,1,-0.6877641355314309,-0.3832453552473552,0.2416505552596279,0,0,UIC,HC
1917,incongruent,1,0.825542175224,-1,-0.1917149264073455,-0.2224111986870222,0.2031937973305652,0,0,UIC,HC
1917,incongruent,1,0.743457899593,1,-0.296443139307892,-0.2224111986870222,0.2031937973305652,0,0,UIC,HC
1917,congruent,1,0.557732360273,1,-0.583876072753221,-0.3832453552473552,0.2416505552596279,0,0,UIC,HC
1917,congruent,1,0.522766224366,-1,-0.6486209045868693,-0.3832453552473552,0.2416505552596279,0,0,UIC,HC
1917,congruent,1,0.687389556048,-1,-0.3748541080946846,-0.3832453552473552,0.2416505552596279,0,0,UIC,HC
1917,incongruent,1,0.532483413043,1,-0.6302035310987273,-0.2224111986870222,0.2031937973305652,0,0,UIC,HC
1917,incongruent,1,0.746616535367,1,-0.292203565188643,-0.2224111986870222,0.2031937973305652,0,0,UIC,HC
1917,congruent,1,0.527469471267,-1,-0.6396642896820574,-0.3832453552473552,0.2416505552596279,0,0,UIC,HC
1917,incongruent,1,0.835551246993,-1,-0.1796635959121009,-0.2224111986870222,0.2031937973305652,0,0,UIC,HC
1917,congruent,1,0.576260462416,1,-0.551195528799655,-0.3832453552473552,0.2416505552596279,0,0,UIC,HC
1917,incongruent,1,0.746442304035,-1,-0.2924369536234359,-0.2224111986870222,0.2031937973305652,0,0,UIC,HC
1917,congruent,1,0.727379907377,1,-0.3183063693334408,-0.3832453552473552,0.2416505552596279,0,0,UIC,HC
1917,incongruent,1,0.631504150232,-1,-0.4596507651910174,-0.2224111986870222,0.2031937973305652,0,0,UIC,HC
1917,congruent,1,0.721679100287,-1,-0.3261746983269707,-0.3832453552473552,0.2416505552596279,0,0,UIC,HC
1917,incongruent,1,0.863375703211,1,-0.1469053370825253,-0.2224111986870222,0.2031937973305652,0,0,UIC,HC
1917,congruent,1,0.770442231922,1,-0.2607906018257084,-0.3832453552473552,0.2416505552596279,0,0,UIC,HC
1917,congruent,1,0.728538519113,1,-0.3167147801901233,-0.3832453552473552,0.2416505552596279,0,0,UIC,HC
1917,incongruent,1,0.703506068428,1,-0.3516787764123033,-0.2224111986870222,0.2031937973305652,0,0,UIC,HC
1917,incongruent,1,0.756490244513,-1,-0.2790656413914023,-0.2224111986870222,0.2031937973305652,0,0,UIC,HC
1917,congruent,1,0.740697385647,-1,-0.3001631235397988,-0.3832453552473552,0.2416505552596279,0,0,UIC,HC
1917,incongruent,1,0.548532617896,1,-0.6005085335855632,-0.2224111986870222,0.2031937973305652,0,0,UIC,HC
1917,congruent,1,0.588259109103,-1,-0.530587766406585,-0.3832453552473552,0.2416505552596279,0,0,UIC,HC
1917,congruent,1,0.792290523769,-1,-0.2328271314901409,-0.3832453552473552,0.2416505552596279,0,0,UIC,HC
1917,incongruent,1,0.957671764028,-1,-0.0432501859966436,-0.2224111986870222,0.2031937973305652,0,0,UIC,HC
1917,congruent,1,0.687452529606,1,-0.3747624996711411,-0.3832453552473552,0.2416505552596279,0,0,UIC,HC
1917,incongruent,1,0.734636354322,-1,-0.3083796582259364,-0.2224111986870222,0.2031937973305652,0,0,UIC,HC
1917,congruent,1,0.847588793637,1,-0.1653596739625587,-0.3832453552473552,0.2416505552596279,0,0,UIC,HC
1917,incongruent,1,1.03668220594,1,0.0360254270634225,-0.2224111986870222,0.2031937973305652,0,0,UIC,HC
1917,incongruent,1,0.707244907721,-1,-0.3463782689380816,-0.2224111986870222,0.2031937973305652,0,0,UIC,HC
1917,incongruent,1,0.689443126119,1,-0.3718710708376413,-0.2224111986870222,0.2031937973305652,0,0,UIC,HC
1917,incongruent,1,0.816660012073,-1,-0.2025324126267139,-0.2224111986870222,0.2031937973305652,0,0,UIC,HC
1917,congruent,1,0.669495501524,1,-0.4012308330310639,-0.3832453552473552,0.2416505552596279,0,0,UIC,HC
1917,incongruent,1,0.977683335702,1,-0.0225694490036178,-0.2224111986870222,0.2031937973305652,0,0,UIC,HC
1917,congruent,1,0.791665574361,-1,-0.2336162309369832,-0.3832453552473552,0.2416505552596279,0,0,UIC,HC
1917,congruent,1,0.520395293809,-1,-0.6531665757955166,-0.3832453552473552,0.2416505552596279,0,0,UIC,HC
1917,congruent,1,0.842535274045,1,-0.1713397493294026,-0.3832453552473552,0.2416505552596279,0,0,UIC,HC
1917,congruent,1,0.803428121884,-1,-0.2188675540798229,-0.3832453552473552,0.2416505552596279,0,0,UIC,HC
1917,incongruent,1,1.25867897529,-1,0.2300627386642575,-0.2224111986870222,0.2031937973305652,0,0,UIC,HC
1917,congruent,1,0.513523998033,1,-0.6664585164640547,-0.3832453552473552,0.2416505552596279,0,0,UIC,HC
1917,incongruent,1,1.02262378749,1,0.0223716651671205,-0.2224111986870222,0.2031937973305652,0,0,UIC,HC
1917,incongruent,1,1.04781787864,1,0.0467097908737058,-0.2224111986870222,0.2031937973305652,0,0,UIC,HC
1917,congruent,1,1.52864791157,1,0.42438362676735,-0.3832453552473552,0.2416505552596279,0,0,UIC,HC
1917,congruent,1,0.621579293999,-1,-0.4754917912959363,-0.3832453552473552,0.2416505552596279,0,0,UIC,HC
1917,incongruent,1,0.898658697219,-1,-0.1068519637371184,-0.2224111986870222,0.2031937973305652,0,0,UIC,HC
1928,incongruent,1,0.681001051643,-1,-0.3841914285709684,-0.3806098649169845,0.1255728136835891,0,0,UIC,HC
1928,congruent,1,0.669577953052,-1,-0.4011076858985112,-0.5064154378546035,0.076238332157928,0,0,UIC,HC
1928,incongruent,1,0.743819830986,-1,-0.2959564361283808,-0.3806098649169845,0.1255728136835891,0,0,UIC,HC
1928,congruent,1,0.605577953052,1,-0.5015719826536813,-0.5064154378546035,0.076238332157928,0,0,UIC,HC
1928,incongruent,1,0.783637746479,1,-0.2438084234759499,-0.3806098649169845,0.1255728136835891,0,0,UIC,HC
1928,congruent,1,0.605611305164,1,-0.5015169093250794,-0.5064154378546035,0.076238332157928,0,0,UIC,HC
1928,incongruent,1,0.692652469484,1,-0.3672268926149878,-0.3806098649169845,0.1255728136835891,0,0,UIC,HC
1928,congruent,1,0.653820131455,-1,-0.4249229937084418,-0.5064154378546035,0.076238332157928,0,0,UIC,HC
1928,incongruent,1,0.578795192488,1,-0.546806590257921,-0.3806098649169845,0.1255728136835891,0,0,UIC,HC
1928,incongruent,1,0.781692131455,-1,-0.2462943097461329,-0.3806098649169845,0.1255728136835891,0,0,UIC,HC
1928,incongruent,1,0.614850178404,-1,-0.4863766532051476,-0.3806098649169845,0.1255728136835891,0,0,UIC,HC
1928,incongruent,1,0.68774170892,1,-0.3743419346190764,-0.3806098649169845,0.1255728136835891,0,0,UIC,HC
1928,congruent,1,0.638901558685,1,-0.4480048917383743,-0.5064154378546035,0.076238332157928,0,0,UIC,HC
1928,congruent,1,0.503646760563,1,-0.6858801285351088,-0.5064154378546035,0.076238332157928,0,0,UIC,HC
1928,congruent,1,0.587731492958,-1,-0.5314850800066719,-0.5064154378546035,0.076238332157928,0,0,UIC,HC
1928,congruent,1,0.617857389671,-1,-0.481497609204036,-0.5064154378546035,0.076238332157928,0,0,UIC,HC
1928,incongruent,1,0.685714666667,-1,-0.3772936755855807,-0.3806098649169845,0.1255728136835891,0,0,UIC,HC
1928,congruent,1,0.641710460094,1,-0.4436180737601102,-0.5064154378546035,0.076238332157928,0,0,UIC,HC
1928,congruent,1,0.661702347418,-1,-0.4129394504141213,-0.5064154378546035,0.076238332157928,0,0,UIC,HC
1928,congruent,1,0.588470985916,-1,-0.5302276552541866,-0.5064154378546035,0.076238332157928,0,0,UIC,HC
1928,congruent,1,0.642609502347,1,-0.4422180450661065,-0.5064154378546035,0.076238332157928,0,0,UIC,HC
1928,incongruent,1,0.696818929577,-1,-0.3612296873705374,-0.3806098649169845,0.1255728136835891,0,0,UIC,HC
1928,incongruent,1,0.707769352113,1,-0.3456370122159409,-0.3806098649169845,0.1255728136835891,0,0,UIC,HC
1928,incongruent,1,0.702782873239,1,-0.3527072922902637,-0.3806098649169845,0.1255728136835891,0,0,UIC,HC
1928,congruent,1,0.546661483568,-1,-0.6039255281549989,-0.5064154378546035,0.076238332157928,0,0,UIC,HC
1928,congruent,1,0.582902760563,1,-0.539734898030027,-0.5064154378546035,0.076238332157928,0,0,UIC,HC
1928,incongruent,1,0.55866599061,-1,-0.582203496734249,-0.3806098649169845,0.1255728136835891,0,0,UIC,HC
1928,incongruent,1,0.860673201878,-1,-0.1500404030757404,-0.3806098649169845,0.1255728136835891,0,0,UIC,HC
1928,congruent,1,0.643717070423,-1,-0.4404959810535081,-0.5064154378546035,0.076238332157928,0,0,UIC,HC
1928,congruent,1,0.663909971831,1,-0.4096087232899923,-0.5064154378546035,0.076238332157928,0,0,UIC,HC
1928,incongruent,1,0.658761239437,1,-0.4173941175081683,-0.3806098649169845,0.1255728136835891,0,0,UIC,HC
1928,incongruent,1,0.661768150235,1,-0.4128400106197762,-0.3806098649169845,0.1255728136835891,0,0,UIC,HC
1928,incongruent,1,0.559757633803,1,-0.5802513857168574,-0.3806098649169845,0.1255728136835891,0,0,UIC,HC
1928,congruent,1,0.549725183099,1,-0.5983367927235487,-0.5064154378546035,0.076238332157928,0,0,UIC,HC
1928,incongruent,1,0.602580056338,-1,-0.506534748854199,-0.3806098649169845,0.1255728136835891,0,0,UIC,HC
1928,incongruent,1,0.807708056338,1,-0.2135546021649107,-0.3806098649169845,0.1255728136835891,0,0,UIC,HC
1928,congruent,1,0.620861295775,-1,-0.4766475782363136,-0.5064154378546035,0.076238332157928,0,0,UIC,HC
1928,congruent,1,0.591696338028,1,-0.5247617182184202,-0.5064154378546035,0.076238332157928,0,0,UIC,HC
1928,incongruent,1,0.748749821596,-1,-0.2893503678216215,-0.3806098649169845,0.1255728136835891,0,0,UIC,HC
1928,congruent,1,0.638527774648,-1,-0.448590104615383,-0.5064154378546035,0.076238332157928,0,0,UIC,HC
1928,incongruent,1,0.540593276995,1,-0.6150880814083888,-0.3806098649169845,0.1255728136835891,0,0,UIC,HC
1928,congruent,1,0.539830046948,-1,-0.6165009168351026,-0.5064154378546035,0.076238332157928,0,0,UIC,HC
1928,incongruent,1,0.75082313615,1,-0.2865851594142515,-0.3806098649169845,0.1255728136835891,0,0,UIC,HC
1928,congruent,1,0.578764544601,1,-0.5468595428374298,-0.5064154378546035,0.076238332157928,0,0,UIC,HC
1928,congruent,1,0.582763042254,1,-0.5399746207864663,-0.5064154378546035,0.076238332157928,0,0,UIC,HC
1928,incongruent,1,0.785650366197,-1,-0.2412434122390597,-0.3806098649169845,0.1255728136835891,0,0,UIC,HC
1928,congruent,1,0.546870309859,-1,-0.6035435981648631,-0.5064154378546035,0.076238332157928,0,0,UIC,HC
1928,incongruent,1,0.632749521127,-1,-0.4576806363695171,-0.3806098649169845,0.1255728136835891,0,0,UIC,HC
1966,incongruent,1,0.894137179655,1,-0.1118960707758222,-0.3655755664140904,0.1522902564713554,0,0,UIC,rMDD
1966,congruent,1,0.625573229668,1,-0.4690868821180226,-0.5672163447322827,0.1178482211571794,0,0,UIC,rMDD
1966,incongruent,1,0.615498263891,-1,-0.4853231540098602,-0.3655755664140904,0.1522902564713554,0,0,UIC,rMDD
1966,congruent,1,0.603253408218,1,-0.5054179247324916,-0.5672163447322827,0.1178482211571794,0,0,UIC,rMDD
1966,congruent,1,0.545305047997,-1,-0.6064099198089058,-0.5672163447322827,0.1178482211571794,0,0,UIC,rMDD
1966,incongruent,1,0.683514448345,-1,-0.3805074842778372,-0.3655755664140904,0.1522902564713554,0,0,UIC,rMDD
1966,incongruent,1,0.620749626517,1,-0.476827456258158,-0.3655755664140904,0.1522902564713554,0,0,UIC,rMDD
1966,congruent,1,0.564761116446,-1,-0.5713524399924231,-0.5672163447322827,0.1178482211571794,0,0,UIC,rMDD
1966,incongruent,1,0.710769212279,-1,-0.3414074978223382,-0.3655755664140904,0.1522902564713554,0,0,UIC,rMDD
1966,incongruent,1,0.852785045785,1,-0.1592477611546514,-0.3655755664140904,0.1522902564713554,0,0,UIC,rMDD
1966,congruent,1,0.544785105879,-1,-0.6073638632154773,-0.5672163447322827,0.1178482211571794,0,0,UIC,rMDD
1966,congruent,1,0.58377298136,-1,-0.5382431022771609,-0.5672163447322827,0.1178482211571794,0,0,UIC,rMDD
1966,incongruent,1,0.634140766051,1,-0.4554843207179755,-0.3655755664140904,0.1522902564713554,0,0,UIC,rMDD
1966,congruent,1,0.661879885774,1,-0.4126711809366192,-0.5672163447322827,0.1178482211571794,0,0,UIC,rMDD
1966,incongruent,1,0.71079157918,-1,-0.3413760297329871,-0.3655755664140904,0.1522902564713554,0,0,UIC,rMDD
1966,congruent,1,0.533732283455,1,-0.6278609075803528,-0.5672163447322827,0.1178482211571794,0,0,UIC,rMDD
1966,incongruent,1,0.616828935872,1,-0.4831635449410449,-0.3655755664140904,0.1522902564713554,0,0,UIC,rMDD
1966,incongruent,1,0.788791028721,-1,-0.2372538490836923,-0.3655755664140904,0.1522902564713554,0,0,UIC,rMDD
1966,incongruent,1,0.697770308389,-1,-0.3598653014514634,-0.3655755664140904,0.1522902564713554,0,0,UIC,rMDD
1966,incongruent,1,0.672763609136,1,-0.3963612604663868,-0.3655755664140904,0.1522902564713554,0,0,UIC,rMDD
1966,congruent,1,0.564745903107,-1,-0.5713793780082789,-0.5672163447322827,0.1178482211571794,0,0,UIC,rMDD
1966,congruent,1,0.602695796922,1,-0.5063426922655887,-0.5672163447322827,0.1178482211571794,0,0,UIC,rMDD
1966,congruent,1,0.524634171962,-1,-0.6450540745896168,-0.5672163447322827,0.1178482211571794,0,0,UIC,rMDD
1966,congruent,1,0.657602810225,1,-0.4191541617927896,-0.5672163447322827,0.1178482211571794,0,0,UIC,rMDD
1966,incongruent,1,0.775863554691,1,-0.2537786058428664,-0.3655755664140904,0.1522902564713554,0,0,UIC,rMDD
1966,incongruent,1,0.671597175833,-1,-0.3980965589201122,-0.3655755664140904,0.1522902564713554,0,0,UIC,rMDD
1966,congruent,1,0.476817063746,-1,-0.7406223758134883,-0.5672163447322827,0.1178482211571794,0,0,UIC,rMDD
1966,congruent,1,0.540605014465,-1,-0.6150663694428906,-0.5672163447322827,0.1178482211571794,0,0,UIC,rMDD
1966,congruent,1,0.520752063921,1,-0.6524812354864516,-0.5672163447322827,0.1178482211571794,0,0,UIC,rMDD
1966,congruent,1,0.547601678058,1,-0.6022071211861251,-0.5672163447322827,0.1178482211571794,0,0,UIC,rMDD
1966,incongruent,1,0.645760070814,-1,-0.437327251597018,-0.3655755664140904,0.1522902564713554,0,0,UIC,rMDD
1966,incongruent,1,0.593831885274,1,-0.5211590211018562,-0.3655755664140904,0.1522902564713554,0,0,UIC,rMDD
1966,incongruent,1,0.571626530438,-1,-0.5592694196613396,-0.3655755664140904,0.1522902564713554,0,0,UIC,rMDD
1966,incongruent,1,0.71079568719,1,-0.3413702502636613,-0.3655755664140904,0.1522902564713554,0,0,UIC,rMDD
1966,congruent,1,0.525671653648,1,-0.6430784937670858,-0.5672163447322827,0.1178482211571794,0,0,UIC,rMDD
1966,incongruent,1,0.786844964082,1,-0.2397240460548738,-0.3655755664140904,0.1522902564713554,0,0,UIC,rMDD
1966,congruent,1,0.57356986682,-1,-0.5558755245145917,-0.5672163447322827,0.1178482211571794,0,0,UIC,rMDD
1966,congruent,1,0.765718019598,1,-0.2669412976438203,-0.5672163447322827,0.1178482211571794,0,0,UIC,rMDD
1966,incongruent,1,1.03854053145,-1,0.0378163924120972,-0.3655755664140904,0.1522902564713554,0,0,UIC,rMDD
1966,congruent,1,0.559829445467,-1,-0.5801231033073369,-0.5672163447322827,0.1178482211571794,0,0,UIC,rMDD
1966,congruent,1,0.455761986604,-1,-0.7857845649376292,-0.5672163447322827,0.1178482211571794,0,0,UIC,rMDD
1966,congruent,1,0.467810383723,-1,-0.7596922281502322,-0.5672163447322827,0.1178482211571794,0,0,UIC,rMDD
1966,incongruent,1,0.527448602399,1,-0.6397038545895579,-0.3655755664140904,0.1522902564713554,0,0,UIC,rMDD
1966,incongruent,1,0.74285024993,1,-0.2972608024513658,-0.3655755664140904,0.1522902564713554,0,0,UIC,rMDD
1966,incongruent,1,0.604588680978,-1,-0.5032069183171562,-0.3655755664140904,0.1522902564713554,0,0,UIC,rMDD
1966,congruent,1,0.622867460786,1,-0.4734215263494664,-0.5672163447322827,0.1178482211571794,0,0,UIC,rMDD
1966,incongruent,1,0.675690919711,-1,-0.392019526858243,-0.3655755664140904,0.1522902564713554,0,0,UIC,rMDD
1966,congruent,1,0.632824652388,1,-0.4575619056579388,-0.5672163447322827,0.1178482211571794,0,0,UIC,rMDD
1968,congruent,1,0.556881620997,-1,-0.5854025912708412,-0.5748898883222966,0.1355003370831704,0,0,UIC,rMDD
1968,congruent,1,0.568666268444,1,-0.5644615398731934,-0.5748898883222966,0.1355003370831704,0,0,UIC,rMDD
1968,incongruent,1,0.610774288458,-1,-0.4930278013861487,-0.4698713808265405,0.1308891317876027,0,0,UIC,rMDD
1968,congruent,1,0.553463473116,-1,-0.5915595215747362,-0.5748898883222966,0.1355003370831704,0,0,UIC,rMDD
1968,incongruent,1,0.593566577447,1,-0.5216058935541029,-0.4698713808265405,0.1308891317876027,0,0,UIC,rMDD
1968,incongruent,1,0.677595040329,-1,-0.3892054551383171,-0.4698713808265405,0.1308891317876027,0,0,UIC,rMDD
1968,congruent,1,0.498681957764,1,-0.6957867456207134,-0.5748898883222966,0.1355003370831704,0,0,UIC,rMDD
1968,incongruent,1,0.589594605249,1,-0.5283200879979205,-0.4698713808265405,0.1308891317876027,0,0,UIC,rMDD
1968,incongruent,1,0.573785170264,-1,-0.5555002205510088,-0.4698713808265405,0.1308891317876027,0,0,UIC,rMDD
1968,congruent,1,0.578460329002,-1,-0.5473853103229848,-0.5748898883222966,0.1355003370831704,0,0,UIC,rMDD
1968,congruent,1,0.490770798203,1,-0.7117780662793742,-0.5748898883222966,0.1355003370831704,0,0,UIC,rMDD
1968,congruent,1,0.564743239134,-1,-0.5713840951372894,-0.5748898883222966,0.1355003370831704,0,0,UIC,rMDD
1968,incongruent,1,0.445613953086,1,-0.8083022778296824,-0.4698713808265405,0.1308891317876027,0,0,UIC,rMDD
1968,incongruent,1,0.727654098225,1,-0.3179294835009586,-0.4698713808265405,0.1308891317876027,0,0,UIC,rMDD
1968,incongruent,1,0.632754507945,-1,-0.4576727552124675,-0.4698713808265405,0.1308891317876027,0,0,UIC,rMDD
1968,congruent,1,0.586701175798,1,-0.5332396589650633,-0.5748898883222966,0.1355003370831704,0,0,UIC,rMDD
1968,incongruent,1,0.624795455939,-1,-0.4703309533080119,-0.4698713808265405,0.1308891317876027,0,0,UIC,rMDD
1968,congruent,1,0.529680044373,1,-0.6354821445923283,-0.5748898883222966,0.1355003370831704,0,0,UIC,rMDD
1968,congruent,1,0.466663571429,-1,-0.7621466847210357,-0.5748898883222966,0.1355003370831704,0,0,UIC,rMDD
1968,incongruent,1,0.59675849097,1,-0.5162427851756938,-0.4698713808265405,0.1308891317876027,0,0,UIC,rMDD
1968,congruent,1,0.671733578436,-1,-0.3978934777310077,-0.5748898883222966,0.1355003370831704,0,0,UIC,rMDD
1968,congruent,1,0.713741888223,1,-0.3372338830880579,-0.5748898883222966,0.1355003370831704,0,0,UIC,rMDD
1968,incongruent,1,0.576668616914,1,-0.550487498232349,-0.4698713808265405,0.1308891317876027,0,0,UIC,rMDD
1968,incongruent,1,0.683798898118,-1,-0.3800914131880034,-0.4698713808265405,0.1308891317876027,0,0,UIC,rMDD
1968,incongruent,1,0.709431322871,-1,-0.3432915835843906,-0.4698713808265405,0.1308891317876027,0,0,UIC,rMDD
1968,incongruent,1,0.629530811953,1,-0.4627804799870875,-0.4698713808265405,0.1308891317876027,0,0,UIC,rMDD
1968,congruent,1,0.588776947013,1,-0.5297078648254575,-0.5748898883222966,0.1355003370831704,0,0,UIC,rMDD
1968,incongruent,1,0.692763473957,-1,-0.3670666454722246,-0.4698713808265405,0.1308891317876027,0,0,UIC,rMDD
1968,congruent,1,0.532781343484,1,-0.6296441763525151,-0.5748898883222966,0.1355003370831704,0,0,UIC,rMDD
1968,congruent,1,0.434815200395,-1,-0.8328341648360326,-0.5748898883222966,0.1355003370831704,0,0,UIC,rMDD
1968,incongruent,1,0.576886918877,1,-0.5501090128298991,-0.4698713808265405,0.1308891317876027,0,0,UIC,rMDD
1968,congruent,1,0.518531804704,-1,-0.6567539133596288,-0.5748898883222966,0.1355003370831704,0,0,UIC,rMDD
1968,congruent,1,0.503817380602,1,-0.6855414166471919,-0.5748898883222966,0.1355003370831704,0,0,UIC,rMDD
1968,congruent,1,0.494200189656,-1,-0.7048146016640425,-0.5748898883222966,0.1355003370831704,0,0,UIC,rMDD
1968,incongruent,1,0.906461259256,-1,-0.0982069863182272,-0.4698713808265405,0.1308891317876027,0,0,UIC,rMDD
1968,congruent,1,0.75374554674,-1,-0.2827004390974983,-0.5748898883222966,0.1355003370831704,0,0,UIC,rMDD
1968,incongruent,1,0.651695630331,1,-0.4281776506977374,-0.4698713808265405,0.1308891317876027,0,0,UIC,rMDD
1968,incongruent,1,0.527842516685,-1,-0.6389573036195522,-0.4698713808265405,0.1308891317876027,0,0,UIC,rMDD
1968,incongruent,1,0.606643814954,1,-0.4998134559470915,-0.4698713808265405,0.1308891317876027,0,0,UIC,rMDD
1968,congruent,1,0.681563748226,1,-0.3833654911696174,-0.5748898883222966,0.1355003370831704,0,0,UIC,rMDD
1968,congruent,1,0.554727706059,1,-0.5892779053424475,-0.5748898883222966,0.1355003370831704,0,0,UIC,rMDD
1968,congruent,1,0.65675906066,-1,-0.4204380543030516,-0.5748898883222966,0.1355003370831704,0,0,UIC,rMDD
1968,congruent,1,0.594463437059,1,-0.5200960667459905,-0.5748898883222966,0.1355003370831704,0,0,UIC,rMDD
1968,incongruent,1,0.694674436409,-1,-0.3643119799897312,-0.4698713808265405,0.1308891317876027,0,0,UIC,rMDD
1968,incongruent,1,0.606765839254,1,-0.4996123296415802,-0.4698713808265405,0.1308891317876027,0,0,UIC,rMDD
1968,incongruent,1,0.595729929534,-1,-0.517967852980774,-0.4698713808265405,0.1308891317876027,0,0,UIC,rMDD
1968,incongruent,1,0.595769617959,1,-0.5179012336940135,-0.4698713808265405,0.1308891317876027,0,0,UIC,rMDD
1968,congruent,1,0.53342889027,-1,-0.6284295062150185,-0.5748898883222966,0.1355003370831704,0,0,UIC,rMDD
1969,incongruent,1,0.584065572037,1,-0.5377420215716627,-0.5544357063011591,0.1303512985925871,0,0,UIC,rMDD
1969,incongruent,1,0.675582614961,-1,-0.3921798271193715,-0.5544357063011591,0.1303512985925871,0,0,UIC,rMDD
1969,congruent,1,0.568762942268,-1,-0.5642915533398386,-0.6329343538780126,0.1048955677683886,0,0,UIC,rMDD
1969,congruent,1,0.498497461935,1,-0.696156780997418,-0.6329343538780126,0.1048955677683886,0,0,UIC,rMDD
1969,incongruent,1,0.536808019889,-1,-0.6221147532555681,-0.5544357063011591,0.1303512985925871,0,0,UIC,rMDD
1969,incongruent,1,0.582465580931,1,-0.5404851838185496,-0.5544357063011591,0.1303512985925871,0,0,UIC,rMDD
1969,congruent,1,0.517858241545,1,-0.6580537391467878,-0.6329343538780126,0.1048955677683886,0,0,UIC,rMDD
1969,congruent,1,0.581601681547,-1,-0.5419694615238847,-0.6329343538780126,0.1048955677683886,0,0,UIC,rMDD
1969,incongruent,1,0.523786388496,1,-0.6466713333171887,-0.5544357063011591,0.1303512985925871,0,0,UIC,rMDD
1969,incongruent,1,0.687721633736,1,-0.3743711250502261,-0.5544357063011591,0.1303512985925871,0,0,UIC,rMDD
1969,incongruent,1,0.587531847652,-1,-0.5318248256637037,-0.5544357063011591,0.1303512985925871,0,0,UIC,rMDD
1969,congruent,1,0.547565413689,-1,-0.6022733473707621,-0.6329343538780126,0.1048955677683886,0,0,UIC,rMDD
1969,congruent,1,0.580811308226,-1,-0.5433293455750022,-0.6329343538780126,0.1048955677683886,0,0,UIC,rMDD
1969,incongruent,1,0.582900295241,-1,-0.5397391274270729,-0.5544357063011591,0.1303512985925871,0,0,UIC,rMDD
1969,congruent,1,0.511836925044,1,-0.6697492104498035,-0.6329343538780126,0.1048955677683886,0,0,UIC,rMDD
1969,congruent,1,0.548800587478,1,-0.6000201320936294,-0.6329343538780126,0.1048955677683886,0,0,UIC,rMDD
1969,congruent,1,0.498830076746,1,-0.6954897687864211,-0.6329343538780126,0.1048955677683886,0,0,UIC,rMDD
1969,incongruent,1,0.513711744688,1,-0.6660929788385956,-0.5544357063011591,0.1303512985925871,0,0,UIC,rMDD
1969,incongruent,1,0.719849979839,-1,-0.3287124500169969,-0.5544357063011591,0.1303512985925871,0,0,UIC,rMDD
1969,incongruent,1,0.537599585472,-1,-0.620641260844923,-0.5544357063011591,0.1303512985925871,0,0,UIC,rMDD
1969,congruent,1,0.527755654083,1,-0.6391218787478568,-0.6329343538780126,0.1048955677683886,0,0,UIC,rMDD
1969,congruent,1,0.425391627,-1,-0.8547450590613281,-0.6329343538780126,0.1048955677683886,0,0,UIC,rMDD
1969,congruent,1,0.532895975693,-1,-0.6294290414193053,-0.6329343538780126,0.1048955677683886,0,0,UIC,rMDD
1969,incongruent,1,0.519820966514,1,-0.6542708218552368,-0.5544357063011591,0.1303512985925871,0,0,UIC,rMDD
1969,congruent,1,0.510712561964,1,-0.6719483480904229,-0.6329343538780126,0.1048955677683886,0,0,UIC,rMDD
1969,incongruent,1,0.584766475788,1,-0.5365426981336755,-0.5544357063011591,0.1303512985925871,0,0,UIC,rMDD
1969,incongruent,1,0.515585326397,1,-0.6624524675986485,-0.5544357063011591,0.1303512985925871,0,0,UIC,rMDD
1969,incongruent,1,0.639735428887,-1,-0.4467005804626613,-0.5544357063011591,0.1303512985925871,0,0,UIC,rMDD
1969,congruent,1,0.455808652076,1,-0.7856821801743192,-0.6329343538780126,0.1048955677683886,0,0,UIC,rMDD
1969,congruent,1,0.602658977455,-1,-0.5064037854271942,-0.6329343538780126,0.1048955677683886,0,0,UIC,rMDD
1969,incongruent,0,0.380397910416,1,-0.9665374414490174,-0.5544357063011591,0.1303512985925871,0,0,UIC,rMDD
1969,congruent,1,0.464786119276,-1,-0.7661779377543972,-0.6329343538780126,0.1048955677683886,0,0,UIC,rMDD
1969,congruent,1,0.498786811557,-1,-0.6955765058686305,-0.6329343538780126,0.1048955677683886,0,0,UIC,rMDD
1969,incongruent,1,0.568774393758,1,-0.5642714195127759,-0.5544357063011591,0.1303512985925871,0,0,UIC,rMDD
1969,congruent,1,0.628614257994,1,-0.4642374727346395,-0.6329343538780126,0.1048955677683886,0,0,UIC,rMDD
1969,incongruent,1,0.582820557876,1,-0.5398759309592583,-0.5544357063011591,0.1303512985925871,0,0,UIC,rMDD
1969,incongruent,1,0.574767468539,-1,-0.553789722518416,-0.5544357063011591,0.1303512985925871,0,0,UIC,rMDD
1969,incongruent,1,0.618483931197,-1,-0.4804840677667968,-0.5544357063011591,0.1303512985925871,0,0,UIC,rMDD
1969,congruent,1,0.521605570823,-1,-0.6508435881679084,-0.6329343538780126,0.1048955677683886,0,0,UIC,rMDD
1969,congruent,1,0.605759839021,1,-0.501271676708375,-0.6329343538780126,0.1048955677683886,0,0,UIC,rMDD
1969,congruent,1,0.541597261041,-1,-0.6132326145589715,-0.6329343538780126,0.1048955677683886,0,0,UIC,rMDD
1969,congruent,1,0.442797061169,1,-0.8146437150960574,-0.6329343538780126,0.1048955677683886,0,0,UIC,rMDD
1969,incongruent,1,0.585537032552,-1,-0.5352258484961924,-0.5544357063011591,0.1303512985925871,0,0,UIC,rMDD
1969,congruent,1,0.598880449839,1,-0.5126932836925172,-0.6329343538780126,0.1048955677683886,0,0,UIC,rMDD
1969,congruent,1,0.598646463505,-1,-0.5130840662868297,-0.6329343538780126,0.1048955677683886,0,0,UIC,rMDD
1969,incongruent,1,0.595639884427,1,-0.5181190152917814,-0.5544357063011591,0.1303512985925871,0,0,UIC,rMDD
1969,incongruent,1,0.67884248493,-1,-0.3873661592924754,-0.5544357063011591,0.1303512985925871,0,0,UIC,rMDD
1969,incongruent,1,0.516724261041,1,-0.660245890967025,-0.5544357063011591,0.1303512985925871,0,0,UIC,rMDD
1974,congruent,1,0.57510692741,1,-0.5531992947602932,-0.6861206647656991,0.0839649547988324,0,0,UIC,HC
1974,incongruent,1,0.546679588249,1,-0.6038924100704994,-0.5755230343111715,0.1451455952619383,0,0,UIC,HC
1974,congruent,1,0.472759885665,-1,-0.7491676606838833,-0.6861206647656991,0.0839649547988324,0,0,UIC,HC
1974,incongruent,1,0.614767058469,1,-0.4865118496429236,-0.5755230343111715,0.1451455952619383,0,0,UIC,HC
1974,incongruent,1,0.63846744971,-1,-0.4486845841199171,-0.5755230343111715,0.1451455952619383,0,0,UIC,HC
1974,congruent,1,0.517817256072,1,-0.6581328864725973,-0.6861206647656991,0.0839649547988324,0,0,UIC,HC
1974,congruent,1,0.47486882622,-1,-0.7447166684117152,-0.6861206647656991,0.0839649547988324,0,0,UIC,HC
1974,incongruent,1,0.63386536241,-1,-0.4559187092262785,-0.5755230343111715,0.1451455952619383,0,0,UIC,HC
1974,incongruent,1,0.534711906727,-1,-0.6260271692241369,-0.5755230343111715,0.1451455952619383,0,0,UIC,HC
1974,congruent,1,0.475818931489,1,-0.7427178931511532,-0.6861206647656991,0.0839649547988324,0,0,UIC,HC
1974,incongruent,1,0.491737701416,-1,-0.709809831855918,-0.5755230343111715,0.1451455952619383,0,0,UIC,HC
1974,incongruent,1,0.548447762961,1,-0.6006632399716575,-0.5755230343111715,0.1451455952619383,0,0,UIC,HC
1974,incongruent,0,0.399639601794,-1,-0.9171921335295864,-0.5755230343111715,0.1451455952619383,0,0,UIC,HC
1974,congruent,1,0.471664206624,1,-0.7514879732246728,-0.6861206647656991,0.0839649547988324,0,0,UIC,HC
1974,congruent,1,0.476667768988,-1,-0.74093553183673,-0.6861206647656991,0.0839649547988324,0,0,UIC,HC
1974,congruent,1,0.488513337382,-1,-0.7163885051452978,-0.6861206647656991,0.0839649547988324,0,0,UIC,HC
1974,incongruent,1,0.509601382099,1,-0.6741264626026651,-0.5755230343111715,0.1451455952619383,0,0,UIC,HC
1974,congruent,1,0.526762371147,1,-0.6410057407701137,-0.6861206647656991,0.0839649547988324,0,0,UIC,HC
1974,congruent,1,0.564645298692,-1,-0.571557534903969,-0.6861206647656991,0.0839649547988324,0,0,UIC,HC
1974,congruent,1,0.541504417049,1,-0.6134040555124952,-0.6861206647656991,0.0839649547988324,0,0,UIC,HC
1974,congruent,1,0.485805869488,-1,-0.7219461803791898,-0.6861206647656991,0.0839649547988324,0,0,UIC,HC
1974,incongruent,1,0.781686960564,-1,-0.2463009247648785,-0.5755230343111715,0.1451455952619383,0,0,UIC,HC
1974,incongruent,1,0.544872871738,-1,-0.6072027743949617,-0.5755230343111715,0.1451455952619383,0,0,UIC,HC
1974,incongruent,1,0.522757729498,1,-0.6486371545598493,-0.5755230343111715,0.1451455952619383,0,0,UIC,HC
1974,incongruent,1,0.555628491641,-1,-0.5876553885654343,-0.5755230343111715,0.1451455952619383,0,0,UIC,HC
1974,congruent,1,0.520794341081,1,-0.6524000539667035,-0.6861206647656991,0.0839649547988324,0,0,UIC,HC
1974,incongruent,1,0.679810674593,1,-0.3859409392941259,-0.5755230343111715,0.1451455952619383,0,0,UIC,HC
1974,incongruent,1,0.629914915807,-1,-0.4621705229918116,-0.5755230343111715,0.1451455952619383,0,0,UIC,HC
1974,congruent,1,0.542638712405,1,-0.6113115351817884,-0.6861206647656991,0.0839649547988324,0,0,UIC,HC
1974,congruent,1,0.420811648113,-1,-0.8655699370648443,-0.6861206647656991,0.0839649547988324,0,0,UIC,HC
1974,incongruent,1,0.588902582143,1,-0.5294945043528226,-0.5755230343111715,0.1451455952619383,0,0,UIC,HC
1974,congruent,1,0.536764397512,-1,-0.6221960190860176,-0.6861206647656991,0.0839649547988324,0,0,UIC,HC
1974,incongruent,1,0.5238322555,-1,-0.6465837690030327,-0.5755230343111715,0.1451455952619383,0,0,UIC,HC
1974,incongruent,1,0.595754986814,1,-0.5179257923895573,-0.5755230343111715,0.1451455952619383,0,0,UIC,HC
1974,congruent,1,0.576866475348,-1,-0.5501444511291137,-0.6861206647656991,0.0839649547988324,0,0,UIC,HC
1974,congruent,1,0.546690071022,1,-0.6038732349033245,-0.6861206647656991,0.0839649547988324,0,0,UIC,HC
1974,incongruent,1,0.558716930574,-1,-0.5821123194608729,-0.5755230343111715,0.1451455952619383,0,0,UIC,HC
1974,congruent,1,0.544886469777,1,-0.6071778183547012,-0.6861206647656991,0.0839649547988324,0,0,UIC,HC
1974,incongruent,1,0.582780430554,1,-0.5399447835467461,-0.5755230343111715,0.1451455952619383,0,0,UIC,HC
1974,congruent,1,0.436761113984,-1,-0.8283688832762858,-0.6861206647656991,0.0839649547988324,0,0,UIC,HC
1974,congruent,1,0.486877864336,1,-0.7197419792709637,-0.6861206647656991,0.0839649547988324,0,0,UIC,HC
1974,incongruent,1,0.583723685124,-1,-0.5383275500318218,-0.5755230343111715,0.1451455952619383,0,0,UIC,HC
1974,congruent,1,0.482872614537,1,-0.7280023981331855,-0.6861206647656991,0.0839649547988324,0,0,UIC,HC
1974,congruent,1,0.485632566005,-1,-0.7223029780485152,-0.6861206647656991,0.0839649547988324,0,0,UIC,HC
1974,congruent,1,0.471825181251,-1,-0.7511467407092238,-0.6861206647656991,0.0839649547988324,0,0,UIC,HC
1974,incongruent,1,0.586768604083,-1,-0.5331247377523822,-0.5755230343111715,0.1451455952619383,0,0,UIC,HC
1974,incongruent,0,0.398805698821,-1,-0.919280951074287,-0.5755230343111715,0.1451455952619383,0,0,UIC,HC
1974,incongruent,1,0.579827681155,1,-0.54502432104195,-0.5755230343111715,0.1451455952619383,0,0,UIC,HC
1985,incongruent,1,0.730911884505,1,-0.3134623675308444,-0.3653582827846463,0.1213465896034135,0,0,UIC,rMDD
1985,incongruent,1,0.667635508447,-1,-0.4040129004018893,-0.3653582827846463,0.1213465896034135,0,0,UIC,rMDD
1985,congruent,1,0.542785814986,-1,-0.6110404844026905,-0.5106836514155848,0.1576543517258373,0,0,UIC,rMDD
1985,congruent,1,0.529727829305,1,-0.6353919339506678,-0.5106836514155848,0.1576543517258373,0,0,UIC,rMDD
1985,incongruent,1,0.673737232778,-1,-0.3949151064330937,-0.3653582827846463,0.1213465896034135,0,0,UIC,rMDD
1985,congruent,1,0.634613494897,1,-0.4547391348574411,-0.5106836514155848,0.1576543517258373,0,0,UIC,rMDD
1985,congruent,1,0.464828885393,-1,-0.7660859295212784,-0.5106836514155848,0.1576543517258373,0,0,UIC,rMDD
1985,incongruent,1,0.628670797913,1,-0.4641475330367603,-0.3653582827846463,0.1213465896034135,0,0,UIC,rMDD
1985,incongruent,1,0.734600495413,1,-0.3084284711984855,-0.3653582827846463,0.1213465896034135,0,0,UIC,rMDD
1985,congruent,1,0.472507874087,1,-0.7497008674528032,-0.5106836514155848,0.1576543517258373,0,0,UIC,rMDD
1985,congruent,1,0.642862730204,-1,-0.441824060888365,-0.5106836514155848,0.1576543517258373,0,0,UIC,rMDD
1985,congruent,0,0.426783473732,1,-0.8514784816444354,-0.5106836514155848,0.1576543517258373,0,0,UIC,rMDD
1985,incongruent,1,0.800724536166,-1,-0.2222382909785183,-0.3653582827846463,0.1213465896034135,0,0,UIC,rMDD
1985,incongruent,1,0.64785986253,-1,-0.4340808675455362,-0.3653582827846463,0.1213465896034135,0,0,UIC,rMDD
1985,incongruent,1,0.776743727713,1,-0.2526448057811715,-0.3653582827846463,0.1213465896034135,0,0,UIC,rMDD
1985,congruent,1,0.946616639004,1,-0.0548610840139358,-0.5106836514155848,0.1576543517258373,0,0,UIC,rMDD
1985,congruent,1,0.6336833503,-1,-0.4562058967866869,-0.5106836514155848,0.1576543517258373,0,0,UIC,rMDD
1985,incongruent,1,0.729511563844,1,-0.3153800594053866,-0.3653582827846463,0.1213465896034135,0,0,UIC,rMDD
1985,congruent,1,0.679701652458,1,-0.386101323474636,-0.5106836514155848,0.1576543517258373,0,0,UIC,rMDD
1985,congruent,1,0.617757950706,-1,-0.4816585637696928,-0.5106836514155848,0.1576543517258373,0,0,UIC,rMDD
1985,congruent,1,0.586669547963,1,-0.5332935683295416,-0.5106836514155848,0.1576543517258373,0,0,UIC,rMDD
1985,incongruent,1,0.83476666911,1,-0.1806030313730247,-0.3653582827846463,0.1213465896034135,0,0,UIC,rMDD
1985,incongruent,1,0.665021780386,-1,-0.4079354864024826,-0.3653582827846463,0.1213465896034135,0,0,UIC,rMDD
1985,incongruent,0,0.450821856825,1,-0.7966830134643459,-0.3653582827846463,0.1213465896034135,0,0,UIC,rMDD
1985,incongruent,1,0.642524385451,1,-0.4423505089236588,-0.3653582827846463,0.1213465896034135,0,0,UIC,rMDD
1985,incongruent,1,0.709302894236,-1,-0.3434726303707473,-0.3653582827846463,0.1213465896034135,0,0,UIC,rMDD
1985,congruent,1,0.611644318194,1,-0.491604344841603,-0.5106836514155848,0.1576543517258373,0,0,UIC,rMDD
1985,congruent,1,0.640803533033,1,-0.4450323697709645,-0.5106836514155848,0.1576543517258373,0,0,UIC,rMDD
1985,congruent,1,0.62174726363,-1,-0.4752215973859113,-0.5106836514155848,0.1576543517258373,0,0,UIC,rMDD
1985,incongruent,1,0.730797338567,1,-0.3136190962925249,-0.3653582827846463,0.1213465896034135,0,0,UIC,rMDD
1985,incongruent,1,0.628814121555,-1,-0.4639195801756137,-0.3653582827846463,0.1213465896034135,0,0,UIC,rMDD
1985,congruent,1,0.635815169591,-1,-0.452847371729032,-0.5106836514155848,0.1576543517258373,0,0,UIC,rMDD
1985,incongruent,1,0.757737542862,1,-0.2774182028203994,-0.3653582827846463,0.1213465896034135,0,0,UIC,rMDD
1985,congruent,1,0.519709777136,-1,-0.6544847441064126,-0.5106836514155848,0.1576543517258373,0,0,UIC,rMDD
1985,incongruent,1,0.780532474073,-1,-0.2477789331362617,-0.3653582827846463,0.1213465896034135,0,0,UIC,rMDD
1985,congruent,1,0.667726545702,1,-0.4038765519788409,-0.5106836514155848,0.1576543517258373,0,0,UIC,rMDD
1985,congruent,1,0.601707657028,1,-0.5079835711794972,-0.5106836514155848,0.1576543517258373,0,0,UIC,rMDD
1985,congruent,1,0.696762092369,-1,-0.3613112573792222,-0.5106836514155848,0.1576543517258373,0,0,UIC,rMDD
1985,incongruent,1,0.702599021914,1,-0.3529689312464547,-0.3653582827846463,0.1213465896034135,0,0,UIC,rMDD
1985,incongruent,1,0.724764214881,-1,-0.3219088978770261,-0.3653582827846463,0.1213465896034135,0,0,UIC,rMDD
1985,incongruent,1,0.671718139785,-1,-0.3979164612901358,-0.3653582827846463,0.1213465896034135,0,0,UIC,rMDD
1985,incongruent,1,0.702848466347,1,-0.352613963255544,-0.3653582827846463,0.1213465896034135,0,0,UIC,rMDD
1985,congruent,1,0.61974209797,1,-0.4784518584990715,-0.5106836514155848,0.1576543517258373,0,0,UIC,rMDD
1985,congruent,1,0.571466539188,-1,-0.5595493465636996,-0.5106836514155848,0.1576543517258373,0,0,UIC,rMDD
1985,incongruent,1,0.628633022969,1,-0.4642076218448652,-0.3653582827846463,0.1213465896034135,0,0,UIC,rMDD
1985,congruent,1,0.63576766186,-1,-0.4529220939254114,-0.5106836514155848,0.1576543517258373,0,0,UIC,rMDD
1985,incongruent,1,0.743867742025,-1,-0.2958920260467405,-0.3653582827846463,0.1213465896034135,0,0,UIC,rMDD
1985,congruent,1,0.576522335052,1,-0.5507411975221936,-0.5106836514155848,0.1576543517258373,0,0,UIC,rMDD
1992,incongruent,1,0.54400592886,-1,-0.6087951335458783,-0.6137796062002853,0.1051117554990847,0,0,UIC,HC
1992,incongruent,1,0.660967403888,1,-0.4140507536777092,-0.6137796062002853,0.1051117554990847,0,0,UIC,HC
1992,incongruent,1,0.53548036989,1,-0.6245910473012514,-0.6137796062002853,0.1051117554990847,0,0,UIC,HC
1992,congruent,1,0.55462856135,1,-0.5894566481181934,-0.6094711385416607,0.1283661289330833,0,0,UIC,HC
1992,incongruent,1,0.675716195025,-1,-0.3919821209370704,-0.6137796062002853,0.1051117554990847,0,0,UIC,HC
1992,congruent,1,0.483448585045,-1,-0.7268103088435013,-0.6094711385416607,0.1283661289330833,0,0,UIC,HC
1992,congruent,1,0.500775389881,1,-0.6915976020151585,-0.6094711385416607,0.1283661289330833,0,0,UIC,HC
1992,congruent,1,0.494725329292,-1,-0.7037525607412464,-0.6094711385416607,0.1283661289330833,0,0,UIC,HC
1992,incongruent,1,0.546728473403,-1,-0.6038029921198786,-0.6137796062002853,0.1051117554990847,0,0,UIC,HC
1992,incongruent,1,0.604603523844,1,-0.5031823682647469,-0.6137796062002853,0.1051117554990847,0,0,UIC,HC
1992,congruent,1,0.470559460622,-1,-0.7538329504241339,-0.6094711385416607,0.1283661289330833,0,0,UIC,HC
1992,congruent,1,0.586746922218,1,-0.5331616897389841,-0.6094711385416607,0.1283661289330833,0,0,UIC,HC
1992,incongruent,1,0.500729088764,-1,-0.6916900651404271,-0.6137796062002853,0.1051117554990847,0,0,UIC,HC
1992,congruent,1,0.702696073197,1,-0.3528308089638226,-0.6094711385416607,0.1283661289330833,0,0,UIC,HC
1992,incongruent,1,0.521833731405,1,-0.6504062640511166,-0.6137796062002853,0.1051117554990847,0,0,UIC,HC
1992,congruent,1,0.472745655439,-1,-0.7491977614614725,-0.6094711385416607,0.1283661289330833,0,0,UIC,HC
1992,incongruent,1,0.47590271435,-1,-0.7425418272571332,-0.6137796062002853,0.1051117554990847,0,0,UIC,HC
1992,congruent,1,0.546541668031,1,-0.6041447290186345,-0.6094711385416607,0.1283661289330833,0,0,UIC,HC
1992,incongruent,1,0.574740446503,1,-0.5538367374813428,-0.6137796062002853,0.1051117554990847,0,0,UIC,HC
1992,incongruent,1,0.56669148443,-1,-0.5679402425120174,-0.6137796062002853,0.1051117554990847,0,0,UIC,HC
1992,congruent,1,0.471640714732,-1,-0.7515377808562732,-0.6094711385416607,0.1283661289330833,0,0,UIC,HC
1992,congruent,1,0.579850122607,1,-0.5449856181333835,-0.6094711385416607,0.1283661289330833,0,0,UIC,HC
1992,incongruent,1,0.514565563754,1,-0.6644322998462343,-0.6137796062002853,0.1051117554990847,0,0,UIC,HC
1992,congruent,1,0.672830995933,-1,-0.3962611013295971,-0.6094711385416607,0.1283661289330833,0,0,UIC,HC
1992,incongruent,1,0.516767709886,1,-0.660161809336499,-0.6137796062002853,0.1051117554990847,0,0,UIC,HC
1992,congruent,1,0.578534262064,-1,-0.5472575084081416,-0.6094711385416607,0.1283661289330833,0,0,UIC,HC
1992,congruent,1,0.61581263846,-1,-0.4848125200583039,-0.6094711385416607,0.1283661289330833,0,0,UIC,HC
1992,incongruent,1,0.483567556466,-1,-0.7265642500312577,-0.6137796062002853,0.1051117554990847,0,0,UIC,HC
1992,congruent,1,0.482721668374,1,-0.7283150473832918,-0.6094711385416607,0.1283661289330833,0,0,UIC,HC
1992,incongruent,1,0.50672284381,-1,-0.679791084015418,-0.6137796062002853,0.1051117554990847,0,0,UIC,HC
1992,incongruent,1,0.513736732703,1,-0.6660443379275333,-0.6137796062002853,0.1051117554990847,0,0,UIC,HC
1992,congruent,1,0.511783771773,1,-0.6698530639010145,-0.6094711385416607,0.1283661289330833,0,0,UIC,HC
1992,incongruent,1,0.485763335053,1,-0.7220337385990846,-0.6137796062002853,0.1051117554990847,0,0,UIC,HC
1992,incongruent,1,0.487553412775,-1,-0.7183554298793383,-0.6137796062002853,0.1051117554990847,0,0,UIC,HC
1992,congruent,1,0.641591315175,1,-0.4438037587200135,-0.6094711385416607,0.1283661289330833,0,0,UIC,HC
1992,congruent,1,0.58488211177,1,-0.5363449703997102,-0.6094711385416607,0.1283661289330833,0,0,UIC,HC
1992,congruent,1,0.420699823054,-1,-0.8658357089847519,-0.6094711385416607,0.1283661289330833,0,0,UIC,HC
1992,incongruent,0,0.457785824579,1,-0.78135383616544,-0.6137796062002853,0.1051117554990847,0,0,UIC,HC
1992,congruent,1,0.585727033554,-1,-0.5349014109775064,-0.6094711385416607,0.1283661289330833,0,0,UIC,HC
1992,incongruent,1,0.612733795315,1,-0.4898247027579656,-0.6137796062002853,0.1051117554990847,0,0,UIC,HC
1992,congruent,1,0.56773850427,-1,-0.5660943460746437,-0.6094711385416607,0.1283661289330833,0,0,UIC,HC
1992,congruent,1,0.559574573026,1,-0.5805784749893992,-0.6094711385416607,0.1283661289330833,0,0,UIC,HC
1992,incongruent,1,0.533853093647,1,-0.6276345834003728,-0.6137796062002853,0.1051117554990847,0,0,UIC,HC
1992,incongruent,1,0.523758397741,-1,-0.6467247740012998,-0.6137796062002853,0.1051117554990847,0,0,UIC,HC
1992,incongruent,1,0.635571775055,-1,-0.4532302520787139,-0.6137796062002853,0.1051117554990847,0,0,UIC,HC
1992,congruent,1,0.587867369544,1,-0.5312539185264441,-0.6094711385416607,0.1283661289330833,0,0,UIC,HC
1992,incongruent,1,0.581735211126,1,-0.5417398984791167,-0.6137796062002853,0.1051117554990847,0,0,UIC,HC
1992,congruent,1,0.476786233218,-1,-0.7406870369322343,-0.6094711385416607,0.1283661289330833,0,0,UIC,HC
1995,congruent,1,0.408920073519,-1,-0.8942355613051173,-0.7290370659985912,0.1570556595261847,0,0,UIC,rMDD
1995,congruent,1,0.422214904446,1,-0.862240842329336,-0.7290370659985912,0.1570556595261847,0,0,UIC,rMDD
1995,congruent,1,0.420676753039,1,-0.8658905477232225,-0.7290370659985912,0.1570556595261847,0,0,UIC,rMDD
1995,incongruent,1,0.626642170161,1,-0.4673796027589094,-0.6033453448238367,0.1175993546006301,0,0,UIC,rMDD
1995,incongruent,1,0.554369259411,-1,-0.5899242810366196,-0.6033453448238367,0.1175993546006301,0,0,UIC,rMDD
1995,congruent,1,0.545734128357,-1,-0.6056233662342572,-0.7290370659985912,0.1570556595261847,0,0,UIC,rMDD
1995,incongruent,0,0.428598376081,1,-0.8472349848415789,-0.6033453448238367,0.1175993546006301,0,0,UIC,rMDD
1995,incongruent,1,0.585757800573,1,-0.5348488844434691,-0.6033453448238367,0.1175993546006301,0,0,UIC,rMDD
1995,incongruent,1,0.535826624994,-1,-0.6239446310681631,-0.6033453448238367,0.1175993546006301,0,0,UIC,rMDD
1995,incongruent,1,0.614854910023,1,-0.486368957670593,-0.6033453448238367,0.1175993546006301,0,0,UIC,rMDD
1995,congruent,1,0.4397995779,1,-0.8214361606163706,-0.7290370659985912,0.1570556595261847,0,0,UIC,rMDD
1995,congruent,1,0.501672599344,-1,-0.6898075646023127,-0.7290370659985912,0.1570556595261847,0,0,UIC,rMDD
1995,congruent,1,0.730803774863,-1,-0.3136102891071158,-0.7290370659985912,0.1570556595261847,0,0,UIC,rMDD
1995,congruent,1,0.49953542885,1,-0.6940767547802165,-0.7290370659985912,0.1570556595261847,0,0,UIC,rMDD
1995,incongruent,1,0.500753067572,1,-0.6916421784999056,-0.6033453448238367,0.1175993546006301,0,0,UIC,rMDD
1995,incongruent,1,0.593870839732,-1,-0.5210934247919482,-0.6033453448238367,0.1175993546006301,0,0,UIC,rMDD
1995,incongruent,1,0.563600825511,1,-0.5734090342478968,-0.6033453448238367,0.1175993546006301,0,0,UIC,rMDD
1995,incongruent,1,0.580783003983,-1,-0.5433780790143935,-0.6033453448238367,0.1175993546006301,0,0,UIC,rMDD
1995,incongruent,1,0.555869368632,-1,-0.5872219608398753,-0.6033453448238367,0.1175993546006301,0,0,UIC,rMDD
1995,congruent,1,0.616468856751,1,-0.4837474738727032,-0.7290370659985912,0.1570556595261847,0,0,UIC,rMDD
1995,incongruent,1,0.524718854873,1,-0.6448926743572485,-0.6033453448238367,0.1175993546006301,0,0,UIC,rMDD
1995,congruent,1,0.640799957694,-1,-0.445037949248589,-0.7290370659985912,0.1570556595261847,0,0,UIC,rMDD
1995,congruent,1,0.475606308485,-1,-0.7431648499872898,-0.7290370659985912,0.1570556595261847,0,0,UIC,rMDD
1995,congruent,1,0.452573713516,1,-0.7928046263115861,-0.7290370659985912,0.1570556595261847,0,0,UIC,rMDD
1995,incongruent,1,0.527785722634,-1,-0.6390649059911815,-0.6033453448238367,0.1175993546006301,0,0,UIC,rMDD
1995,incongruent,1,0.640623932844,1,-0.4453126824612393,-0.6033453448238367,0.1175993546006301,0,0,UIC,rMDD
1995,incongruent,1,0.534690889544,-1,-0.6260664756165943,-0.6033453448238367,0.1175993546006301,0,0,UIC,rMDD
1995,congruent,1,0.450629341301,-1,-0.7971101370342674,-0.7290370659985912,0.1570556595261847,0,0,UIC,rMDD
1995,congruent,1,0.435595231964,1,-0.831041833887738,-0.7290370659985912,0.1570556595261847,0,0,UIC,rMDD
1995,incongruent,1,0.551533565937,1,-0.5950525791542556,-0.6033453448238367,0.1175993546006301,0,0,UIC,rMDD
1995,congruent,1,0.413811005369,1,-0.8823459181592059,-0.7290370659985912,0.1570556595261847,0,0,UIC,rMDD
1995,congruent,0,0.583768100679,1,-0.5382514628926033,-0.7290370659985912,0.1570556595261847,0,0,UIC,rMDD
1995,incongruent,1,0.509790996481,1,-0.6737544480807379,-0.6033453448238367,0.1175993546006301,0,0,UIC,rMDD
1995,congruent,1,0.559765963737,-1,-0.5802365045048516,-0.7290370659985912,0.1570556595261847,0,0,UIC,rMDD
1995,incongruent,1,0.503683082136,-1,-0.6858080139774412,-0.6033453448238367,0.1175993546006301,0,0,UIC,rMDD
1995,incongruent,1,0.638763326814,-1,-0.4482212737851976,-0.6033453448238367,0.1175993546006301,0,0,UIC,rMDD
1995,incongruent,1,0.596503884324,1,-0.5166695256061897,-0.6033453448238367,0.1175993546006301,0,0,UIC,rMDD
1995,congruent,1,0.455520946204,1,-0.7863135782592736,-0.7290370659985912,0.1570556595261847,0,0,UIC,rMDD
1995,congruent,1,0.480973653302,-1,-0.731942785216489,-0.7290370659985912,0.1570556595261847,0,0,UIC,rMDD
1995,congruent,1,0.420496079319,1,-0.8663201234675363,-0.7290370659985912,0.1570556595261847,0,0,UIC,rMDD
1995,congruent,1,0.469733621163,-1,-0.7555895084321456,-0.7290370659985912,0.1570556595261847,0,0,UIC,rMDD
1995,incongruent,1,0.533909708511,1,-0.6275285395038471,-0.6033453448238367,0.1175993546006301,0,0,UIC,rMDD
1995,congruent,1,0.440542541572,-1,-0.8197482626231734,-0.7290370659985912,0.1570556595261847,0,0,UIC,rMDD
1995,congruent,1,0.444639595736,1,-0.8104912221823115,-0.7290370659985912,0.1570556595261847,0,0,UIC,rMDD
1995,incongruent,1,0.558260710473,1,-0.5829292026456463,-0.6033453448238367,0.1175993546006301,0,0,UIC,rMDD
1995,congruent,1,0.412374953915,1,-0.8858222611884751,-0.7290370659985912,0.1570556595261847,0,0,UIC,rMDD
1995,incongruent,1,0.566717561651,-1,-0.5678942269608008,-0.6033453448238367,0.1175993546006301,0,0,UIC,rMDD
1995,incongruent,0,0.382644963329,1,-0.960647708418349,-0.6033453448238367,0.1175993546006301,0,0,UIC,rMDD
2910,incongruent,1,0.631859757545,-1,-0.4590878120779794,-0.0016894989305106,0.3816140225457615,0,0,UIC,rMDD
2910,incongruent,1,0.964655262037,1,-0.035984482881501,-0.0016894989305106,0.3816140225457615,0,0,UIC,rMDD
2910,congruent,1,0.668320101246,1,-0.4029880267399866,-0.4003340988371871,0.1479693796373843,0,0,UIC,rMDD
2910,congruent,1,0.626856487833,1,-0.4670376515765582,-0.4003340988371871,0.1479693796373843,0,0,UIC,rMDD
2910,congruent,1,0.596684333086,-1,-0.5163670607297475,-0.4003340988371871,0.1479693796373843,0,0,UIC,rMDD
2910,incongruent,1,1.3108001774,-1,0.270637773179712,-0.0016894989305106,0.3816140225457615,0,0,UIC,rMDD
2910,incongruent,1,0.782851447152,1,-0.2448123236576224,-0.0016894989305106,0.3816140225457615,0,0,UIC,rMDD
2910,congruent,1,0.586315279308,-1,-0.5338976147886865,-0.4003340988371871,0.1479693796373843,0,0,UIC,rMDD
2910,incongruent,1,2.30283368098,1,0.8341403998112197,-0.0016894989305106,0.3816140225457615,0,0,UIC,rMDD
2910,congruent,1,0.683729910742,1,-0.3801923066764792,-0.4003340988371871,0.1479693796373843,0,0,UIC,rMDD
2910,incongruent,1,1.79148927774,-1,0.5830472726710004,-0.0016894989305106,0.3816140225457615,0,0,UIC,rMDD
2910,incongruent,1,0.676442551084,1,-0.3909077557695823,-0.0016894989305106,0.3816140225457615,0,0,UIC,rMDD
2910,congruent,1,0.574849516935,1,-0.5536469821150015,-0.4003340988371871,0.1479693796373843,0,0,UIC,rMDD
2910,congruent,1,0.932595014245,-1,-0.0697842407030561,-0.4003340988371871,0.1479693796373843,0,0,UIC,rMDD
2910,congruent,1,0.615814549467,-1,-0.4848094168351553,-0.4003340988371871,0.1479693796373843,0,0,UIC,rMDD
2910,incongruent,1,0.970799768758,-1,-0.0296350433270821,-0.0016894989305106,0.3816140225457615,0,0,UIC,rMDD
2910,congruent,1,0.867799492326,1,-0.1417945906307336,-0.4003340988371871,0.1479693796373843,0,0,UIC,rMDD
2910,incongruent,1,1.69175437619,1,0.5257660829097692,-0.0016894989305106,0.3816140225457615,0,0,UIC,rMDD
2910,incongruent,1,0.75168793632,-1,-0.2854340194574916,-0.0016894989305106,0.3816140225457615,0,0,UIC,rMDD
2910,incongruent,1,0.712723249929,1,-0.3386620826842531,-0.0016894989305106,0.3816140225457615,0,0,UIC,rMDD
2910,congruent,1,0.633564556227,-1,-0.4563933803449332,-0.4003340988371871,0.1479693796373843,0,0,UIC,rMDD
2910,congruent,1,0.599818912287,1,-0.5111274821756566,-0.4003340988371871,0.1479693796373843,0,0,UIC,rMDD
2910,incongruent,1,0.637775589356,-1,-0.4497687983339763,-0.0016894989305106,0.3816140225457615,0,0,UIC,rMDD
2910,congruent,1,0.810542624339,-1,-0.210051349011553,-0.4003340988371871,0.1479693796373843,0,0,UIC,rMDD
2910,congruent,1,0.558671316737,-1,-0.5821939631279422,-0.4003340988371871,0.1479693796373843,0,0,UIC,rMDD
2910,congruent,1,0.6017912883,1,-0.5078445909627562,-0.4003340988371871,0.1479693796373843,0,0,UIC,rMDD
2910,congruent,1,0.696799922599,1,-0.3612569645245045,-0.4003340988371871,0.1479693796373843,0,0,UIC,rMDD
2910,incongruent,1,0.945619811413,-1,-0.0559146813938958,-0.0016894989305106,0.3816140225457615,0,0,UIC,rMDD
2910,congruent,1,0.592667477935,-1,-0.5231217827331268,-0.4003340988371871,0.1479693796373843,0,0,UIC,rMDD
2910,incongruent,1,1.03854256424,1,0.0378183497627724,-0.0016894989305106,0.3816140225457615,0,0,UIC,rMDD
2910,incongruent,1,2.29283039023,1,0.8297870326401809,-0.0016894989305106,0.3816140225457615,0,0,UIC,rMDD
2910,incongruent,1,0.691744977498,-1,-0.3685379209153666,-0.0016894989305106,0.3816140225457615,0,0,UIC,rMDD
2910,congruent,1,0.789785699563,1,-0.2359936366963976,-0.4003340988371871,0.1479693796373843,0,0,UIC,rMDD
2910,incongruent,1,0.888768469425,1,-0.1179185167304047,-0.0016894989305106,0.3816140225457615,0,0,UIC,rMDD
2910,incongruent,1,0.826622056523,-1,-0.1904076938307893,-0.0016894989305106,0.3816140225457615,0,0,UIC,rMDD
2910,congruent,1,0.821017456091,-1,-0.19721090776914,-0.4003340988371871,0.1479693796373843,0,0,UIC,rMDD
2910,incongruent,1,0.702498940844,1,-0.3531113854707464,-0.0016894989305106,0.3816140225457615,0,0,UIC,rMDD
2910,incongruent,1,0.910728057445,-1,-0.0935109362247661,-0.0016894989305106,0.3816140225457615,0,0,UIC,rMDD
2910,congruent,1,0.654784855844,1,-0.4234485616634239,-0.4003340988371871,0.1479693796373843,0,0,UIC,rMDD
2910,congruent,1,0.598627664491,-1,-0.5131154693106851,-0.4003340988371871,0.1479693796373843,0,0,UIC,rMDD
2910,congruent,1,0.644800251914,1,-0.4388146971043109,-0.4003340988371871,0.1479693796373843,0,0,UIC,rMDD
2910,congruent,1,0.604765205122,-1,-0.5029149869854218,-0.4003340988371871,0.1479693796373843,0,0,UIC,rMDD
2910,incongruent,1,1.15479251662,-1,0.1439206885466436,-0.0016894989305106,0.3816140225457615,0,0,UIC,rMDD
2910,incongruent,1,1.05283726979,-1,0.051488681598726,-0.0016894989305106,0.3816140225457615,0,0,UIC,rMDD
2910,incongruent,1,0.8396816553,1,-0.1747324407622381,-0.0016894989305106,0.3816140225457615,0,0,UIC,rMDD
2910,congruent,1,0.653554578228,1,-0.4253292326064182,-0.4003340988371871,0.1479693796373843,0,0,UIC,rMDD
2910,congruent,1,0.844776252794,-1,-0.1686834762808165,-0.4003340988371871,0.1479693796373843,0,0,UIC,rMDD
2910,incongruent,1,1.31163131099,1,0.2712716380654164,-0.0016894989305106,0.3816140225457615,0,0,UIC,rMDD
2914,incongruent,1,0.544933681498,-1,-0.6070911770479234,-0.6896599937816272,0.0897735267273961,0,0,UIC,rMDD
2914,congruent,1,0.415378340812,1,-0.8785655094579892,-0.8198867261332987,0.163844416765835,0,0,UIC,rMDD
2914,congruent,1,0.437846246876,-1,-0.8258874647624144,-0.8198867261332987,0.163844416765835,0,0,UIC,rMDD
2914,incongruent,1,0.474775535505,1,-0.7449131434692423,-0.6896599937816272,0.0897735267273961,0,0,UIC,rMDD
2914,incongruent,1,0.484746137535,-1,-0.724129952843673,-0.6896599937816272,0.0897735267273961,0,0,UIC,rMDD
2914,congruent,1,0.394783503965,1,-0.9294177555657658,-0.8198867261332987,0.163844416765835,0,0,UIC,rMDD
2914,congruent,1,0.412799551459,-1,-0.8847931513972542,-0.8198867261332987,0.163844416765835,0,0,UIC,rMDD
2914,incongruent,1,0.474870815695,1,-0.7447124788951105,-0.6896599937816272,0.0897735267273961,0,0,UIC,rMDD
2914,incongruent,1,0.545743048705,1,-0.6056070207747501,-0.6896599937816272,0.0897735267273961,0,0,UIC,rMDD
2914,congruent,1,0.445829336433,-1,-0.8078190539303646,-0.8198867261332987,0.163844416765835,0,0,UIC,rMDD
2914,incongruent,1,0.507816860925,-1,-0.6776344063931615,-0.6896599937816272,0.0897735267273961,0,0,UIC,rMDD
2914,incongruent,0,0.431777208521,1,-0.8398455447840533,-0.6896599937816272,0.0897735267273961,0,0,UIC,rMDD
2914,congruent,1,0.819722583103,1,-0.198789309253714,-0.8198867261332987,0.163844416765835,0,0,UIC,rMDD
2914,congruent,1,0.437697737853,1,-0.8262267030577245,-0.8198867261332987,0.163844416765835,0,0,UIC,rMDD
2914,congruent,1,0.451893377374,-1,-0.7943090177419954,-0.8198867261332987,0.163844416765835,0,0,UIC,rMDD
2914,incongruent,1,0.491884637307,1,-0.7095110670021556,-0.6896599937816272,0.0897735267273961,0,0,UIC,rMDD
2914,incongruent,1,0.541782886199,1,-0.6128899367643132,-0.6896599937816272,0.0897735267273961,0,0,UIC,rMDD
2914,congruent,1,0.42264988142,-1,-0.8612111461703534,-0.8198867261332987,0.163844416765835,0,0,UIC,rMDD
2914,congruent,1,0.413528277668,-1,-0.8830293807187688,-0.8198867261332987,0.163844416765835,0,0,UIC,rMDD
2914,incongruent,1,0.493763353255,1,-0.7056989185654146,-0.6896599937816272,0.0897735267273961,0,0,UIC,rMDD
2914,incongruent,1,0.528788736948,-1,-0.6371662899377564,-0.6896599937816272,0.0897735267273961,0,0,UIC,rMDD
2914,congruent,1,0.364749437896,1,-1.0085446326469134,-0.8198867261332987,0.163844416765835,0,0,UIC,rMDD
2914,congruent,1,0.428650799655,1,-0.8471126783394574,-0.8198867261332987,0.163844416765835,0,0,UIC,rMDD
2914,incongruent,1,0.487837828913,-1,-0.7177722461600161,-0.6896599937816272,0.0897735267273961,0,0,UIC,rMDD
2914,congruent,1,0.414915280424,1,-0.8796809231481975,-0.8198867261332987,0.163844416765835,0,0,UIC,rMDD
2914,incongruent,1,0.454706263985,1,-0.7881036421629297,-0.6896599937816272,0.0897735267273961,0,0,UIC,rMDD
2914,incongruent,1,0.456787138448,-1,-0.7835377767985389,-0.6896599937816272,0.0897735267273961,0,0,UIC,rMDD
2914,congruent,1,0.406818988252,1,-0.8993869387780975,-0.8198867261332987,0.163844416765835,0,0,UIC,rMDD
2914,incongruent,1,0.482681272105,-1,-0.7283987352763565,-0.6896599937816272,0.0897735267273961,0,0,UIC,rMDD
2914,congruent,1,0.358797219813,-1,-1.0249978973977505,-0.8198867261332987,0.163844416765835,0,0,UIC,rMDD
2914,incongruent,1,0.510798984172,1,-0.6717791435258086,-0.6896599937816272,0.0897735267273961,0,0,UIC,rMDD
2914,congruent,1,0.450810159246,-1,-0.7967089610322942,-0.8198867261332987,0.163844416765835,0,0,UIC,rMDD
2914,congruent,1,0.423615663914,-1,-0.8589286878601821,-0.8198867261332987,0.163844416765835,0,0,UIC,rMDD
2914,incongruent,1,0.539712698847,1,-0.6167183201791003,-0.6896599937816272,0.0897735267273961,0,0,UIC,rMDD
2914,congruent,1,0.388506684703,-1,-0.9454449028797356,-0.8198867261332987,0.163844416765835,0,0,UIC,rMDD
2914,incongruent,1,0.662799243777,-1,-0.4112831343824019,-0.6896599937816272,0.0897735267273961,0,0,UIC,rMDD
2914,congruent,1,0.565852006282,1,-0.5694227079689789,-0.8198867261332987,0.163844416765835,0,0,UIC,rMDD
2914,incongruent,1,0.544531166986,-1,-0.607830098603538,-0.6896599937816272,0.0897735267273961,0,0,UIC,rMDD
2914,incongruent,0,0.508484500413,-1,-0.6763205449551276,-0.6896599937816272,0.0897735267273961,0,0,UIC,rMDD
2914,congruent,1,0.480816288831,1,-0.7322700177347564,-0.8198867261332987,0.163844416765835,0,0,UIC,rMDD
2914,incongruent,1,0.480635990098,-1,-0.7326450727199385,-0.6896599937816272,0.0897735267273961,0,0,UIC,rMDD
2914,congruent,1,0.416790460443,-1,-0.8751716764176692,-0.8198867261332987,0.163844416765835,0,0,UIC,rMDD
2914,incongruent,1,0.459857784918,1,-0.7768380005215367,-0.6896599937816272,0.0897735267273961,0,0,UIC,rMDD
2914,incongruent,1,0.525763742664,1,-0.6429033255797516,-0.6896599937816272,0.0897735267273961,0,0,UIC,rMDD
2914,congruent,1,0.447456792286,-1,-0.8041752994796592,-0.8198867261332987,0.163844416765835,0,0,UIC,rMDD
2914,congruent,1,0.416634785815,1,-0.8755452543252487,-0.8198867261332987,0.163844416765835,0,0,UIC,rMDD
2914,incongruent,1,0.454521585603,-1,-0.7885098734164564,-0.6896599937816272,0.0897735267273961,0,0,UIC,rMDD
2914,congruent,1,0.511789251352,1,-0.6698423571338836,-0.8198867261332987,0.163844416765835,0,0,UIC,rMDD
2919,incongruent,1,0.679839839285,1,-0.3858980390168756,-0.5816547481033517,0.1727587470667443,0,0,UIC,rMDD
2919,congruent,1,0.416862374449,1,-0.8749991489501948,-0.7552552090524238,0.111257135307435,0,0,UIC,rMDD
2919,congruent,1,0.398568811574,-1,-0.9198751191869642,-0.7552552090524238,0.111257135307435,0,0,UIC,rMDD
2919,incongruent,1,0.653905567447,-1,-0.4247923302333822,-0.5816547481033517,0.1727587470667443,0,0,UIC,rMDD
2919,incongruent,1,0.523406630506,-1,-0.6473966208234201,-0.5816547481033517,0.1727587470667443,0,0,UIC,rMDD
2919,congruent,1,0.494488338804,1,-0.7042317099891339,-0.7552552090524238,0.111257135307435,0,0,UIC,rMDD
2919,incongruent,1,0.704736225606,1,-0.3499316942573192,-0.5816547481033517,0.1727587470667443,0,0,UIC,rMDD
2919,congruent,1,0.53467874231,-1,-0.6260891941110021,-0.7552552090524238,0.111257135307435,0,0,UIC,rMDD
2919,incongruent,1,0.504859350531,1,-0.6834754022989487,-0.5816547481033517,0.1727587470667443,0,0,UIC,rMDD
2919,congruent,1,0.447601932856,-1,-0.8038509842873814,-0.7552552090524238,0.111257135307435,0,0,UIC,rMDD
2919,congruent,1,0.534638729473,-1,-0.6261640321980522,-0.7552552090524238,0.111257135307435,0,0,UIC,rMDD
2919,incongruent,1,0.566905930414,1,-0.5675618965776494,-0.5816547481033517,0.1727587470667443,0,0,UIC,rMDD
2919,congruent,1,0.538517698216,1,-0.6189349171578875,-0.7552552090524238,0.111257135307435,0,0,UIC,rMDD
2919,incongruent,1,0.54956238154,-1,-0.5986329873962204,-0.5816547481033517,0.1727587470667443,0,0,UIC,rMDD
2919,congruent,1,0.461801201395,1,-0.7726207805168367,-0.7552552090524238,0.111257135307435,0,0,UIC,rMDD
2919,incongruent,0,0.498793915626,1,-0.6955622632739079,-0.5816547481033517,0.1727587470667443,0,0,UIC,rMDD
2919,incongruent,1,0.783763260592,-1,-0.2436482677625083,-0.5816547481033517,0.1727587470667443,0,0,UIC,rMDD
2919,congruent,1,0.395576823275,1,-0.9274102672111972,-0.7552552090524238,0.111257135307435,0,0,UIC,rMDD
2919,congruent,1,0.497875941219,1,-0.6974043470096076,-0.7552552090524238,0.111257135307435,0,0,UIC,rMDD
2919,congruent,1,0.455746342994,-1,-0.7858188896047629,-0.7552552090524238,0.111257135307435,0,0,UIC,rMDD
2919,incongruent,1,0.711717310491,1,-0.3400744822370014,-0.5816547481033517,0.1727587470667443,0,0,UIC,rMDD
2919,congruent,1,0.425723678027,-1,-0.8539647863018429,-0.7552552090524238,0.111257135307435,0,0,UIC,rMDD
2919,incongruent,0,0.340642111551,1,-1.0769228790803462,-0.5816547481033517,0.1727587470667443,0,0,UIC,rMDD
2919,incongruent,1,0.627567316441,1,-0.4659043365331724,-0.5816547481033517,0.1727587470667443,0,0,UIC,rMDD
2919,incongruent,1,0.538629011109,-1,-0.6187282361321136,-0.5816547481033517,0.1727587470667443,0,0,UIC,rMDD
2919,congruent,1,0.476586736343,1,-0.7411055444508683,-0.7552552090524238,0.111257135307435,0,0,UIC,rMDD
2919,incongruent,1,0.500803182085,-1,-0.6915421052128407,-0.5816547481033517,0.1727587470667443,0,0,UIC,rMDD
2919,incongruent,1,0.51666613704,1,-0.6603583828213508,-0.5816547481033517,0.1727587470667443,0,0,UIC,rMDD
2919,congruent,1,0.382672341121,-1,-0.9605761621672646,-0.7552552090524238,0.111257135307435,0,0,UIC,rMDD
2919,incongruent,1,0.582793523815,1,-0.5399223169139743,-0.5816547481033517,0.1727587470667443,0,0,UIC,rMDD
2919,congruent,1,0.561754539784,1,-0.5766902864469059,-0.7552552090524238,0.111257135307435,0,0,UIC,rMDD
2919,congruent,1,0.523542327047,-1,-0.6471373979820755,-0.7552552090524238,0.111257135307435,0,0,UIC,rMDD
2919,incongruent,1,0.589850550399,1,-0.5278860785778268,-0.5816547481033517,0.1727587470667443,0,0,UIC,rMDD
2919,incongruent,1,0.598546971094,-1,-0.5132502757035432,-0.5816547481033517,0.1727587470667443,0,0,UIC,rMDD
2919,incongruent,1,0.463718358527,1,-0.7684778969796113,-0.5816547481033517,0.1727587470667443,0,0,UIC,rMDD
2919,congruent,1,0.477837389863,1,-0.7384847929390692,-0.7552552090524238,0.111257135307435,0,0,UIC,rMDD
2919,incongruent,1,0.513686874198,-1,-0.6661413933284492,-0.5816547481033517,0.1727587470667443,0,0,UIC,rMDD
2919,congruent,1,0.412809905376,-1,-0.8847680695212781,-0.7552552090524238,0.111257135307435,0,0,UIC,rMDD
2919,congruent,1,0.488684669959,-1,-0.7160378442199408,-0.7552552090524238,0.111257135307435,0,0,UIC,rMDD
2919,congruent,1,0.555776942741,1,-0.5873882473471347,-0.7552552090524238,0.111257135307435,0,0,UIC,rMDD
2919,congruent,1,0.49380624206,1,-0.7056120612842053,-0.7552552090524238,0.111257135307435,0,0,UIC,rMDD
2919,incongruent,1,0.564802593166,-1,-0.5712790015140696,-0.5816547481033517,0.1727587470667443,0,0,UIC,rMDD
2919,congruent,1,0.476739057225,-1,-0.7407859876229215,-0.7552552090524238,0.111257135307435,0,0,UIC,rMDD
2919,congruent,1,0.457827116232,-1,-0.7812636416057357,-0.7552552090524238,0.111257135307435,0,0,UIC,rMDD
2919,incongruent,1,0.552744362303,1,-0.5928596586579703,-0.5816547481033517,0.1727587470667443,0,0,UIC,rMDD
2919,incongruent,0,0.459644746062,-1,-0.777301379039016,-0.5816547481033517,0.1727587470667443,0,0,UIC,rMDD
2919,incongruent,1,0.575701472177,-1,-0.5521660301089233,-0.5816547481033517,0.1727587470667443,0,0,UIC,rMDD
2919,congruent,1,0.43391318253,1,-0.8349108051459087,-0.7552552090524238,0.111257135307435,0,0,UIC,rMDD
2927,congruent,1,0.429815924883,-1,-0.8443982436150854,-0.7632250351855749,0.0856131085436891,0,0,UIC,rMDD
2927,congruent,1,0.416088488263,1,-0.8768573291702269,-0.7632250351855749,0.0856131085436891,0,0,UIC,rMDD
2927,congruent,1,0.490726685446,1,-0.7118679549602207,-0.7632250351855749,0.0856131085436891,0,0,UIC,rMDD
2927,incongruent,1,0.574634441315,-1,-0.5540211945969874,-0.5132426477217623,0.3058018699226363,0,0,UIC,rMDD
2927,incongruent,1,0.543763342723,1,-0.609241158539154,-0.5132426477217623,0.3058018699226363,0,0,UIC,rMDD
2927,congruent,1,0.407806309859,-1,-0.896962948036033,-0.7632250351855749,0.0856131085436891,0,0,UIC,rMDD
2927,incongruent,0,0.416630835681,1,-0.8755547354172274,-0.5132426477217623,0.3058018699226363,0,0,UIC,rMDD
2927,incongruent,1,0.699829746479,1,-0.3569181928370613,-0.5132426477217623,0.3058018699226363,0,0,UIC,rMDD
2927,incongruent,1,0.543591173709,1,-0.6095578335753763,-0.5132426477217623,0.3058018699226363,0,0,UIC,rMDD
2927,incongruent,0,0.451732093897,-1,-0.794665987490725,-0.5132426477217623,0.3058018699226363,0,0,UIC,rMDD
2927,incongruent,1,0.585718873239,-1,-0.5349153430164557,-0.5132426477217623,0.3058018699226363,0,0,UIC,rMDD
2927,congruent,1,0.506702647887,-1,-0.6798309407649632,-0.7632250351855749,0.0856131085436891,0,0,UIC,rMDD
2927,congruent,1,0.44225915493,1,-0.8158592453537876,-0.7632250351855749,0.0856131085436891,0,0,UIC,rMDD
2927,congruent,1,0.473914478873,-1,-0.7467283978840514,-0.7632250351855749,0.0856131085436891,0,0,UIC,rMDD
2927,incongruent,1,0.609709558685,-1,-0.4947725685055132,-0.5132426477217623,0.3058018699226363,0,0,UIC,rMDD
2927,congruent,1,0.4337537277,1,-0.8352783536369599,-0.7632250351855749,0.0856131085436891,0,0,UIC,rMDD
2927,congruent,1,0.494659981221,1,-0.7038846590661368,-0.7632250351855749,0.0856131085436891,0,0,UIC,rMDD
2927,congruent,1,0.480644056338,-1,-0.7326282904304692,-0.7632250351855749,0.0856131085436891,0,0,UIC,rMDD
2927,incongruent,1,0.717758234742,1,-0.3316224870520027,-0.5132426477217623,0.3058018699226363,0,0,UIC,rMDD
2927,congruent,1,0.47155541784,-1,-0.7517186486297657,-0.7632250351855749,0.0856131085436891,0,0,UIC,rMDD
2927,incongruent,1,0.542742610329,-1,-0.6111200855554845,-0.5132426477217623,0.3058018699226363,0,0,UIC,rMDD
2927,incongruent,1,0.583760938967,-1,-0.5382637310448408,-0.5132426477217623,0.3058018699226363,0,0,UIC,rMDD
2927,congruent,1,0.533859492958,1,-0.6276225964460551,-0.7632250351855749,0.0856131085436891,0,0,UIC,rMDD
2927,incongruent,1,0.635679812207,1,-0.4530602823365438,-0.5132426477217623,0.3058018699226363,0,0,UIC,rMDD
2927,incongruent,1,0.530768150235,-1,-0.6334299816495257,-0.5132426477217623,0.3058018699226363,0,0,UIC,rMDD
2927,congruent,1,0.479653370892,-1,-0.7346915799267595,-0.7632250351855749,0.0856131085436891,0,0,UIC,rMDD
2927,incongruent,1,0.575872112676,1,-0.5518696695419678,-0.5132426477217623,0.3058018699226363,0,0,UIC,rMDD
2927,congruent,1,0.491731192488,-1,-0.7098230685287612,-0.7632250351855749,0.0856131085436891,0,0,UIC,rMDD
2927,congruent,1,0.431754328639,1,-0.8398985362059546,-0.7632250351855749,0.0856131085436891,0,0,UIC,rMDD
2927,incongruent,1,0.569824638498,-1,-0.5624266172459466,-0.5132426477217623,0.3058018699226363,0,0,UIC,rMDD
2927,congruent,1,0.449751624413,1,-0.7990597943447876,-0.7632250351855749,0.0856131085436891,0,0,UIC,rMDD
2927,incongruent,1,0.567492319249,1,-0.5665280640811652,-0.5132426477217623,0.3058018699226363,0,0,UIC,rMDD
2927,incongruent,1,0.568911474178,1,-0.5640304383693393,-0.5132426477217623,0.3058018699226363,0,0,UIC,rMDD
2927,congruent,1,0.524712262911,1,-0.6449052372818432,-0.7632250351855749,0.0856131085436891,0,0,UIC,rMDD
2927,congruent,1,0.483600187793,-1,-0.7264967719185806,-0.7632250351855749,0.0856131085436891,0,0,UIC,rMDD
2927,congruent,1,0.427691230047,-1,-0.8493537688765007,-0.7632250351855749,0.0856131085436891,0,0,UIC,rMDD
2927,incongruent,1,0.59977085446,-1,-0.5112076059452283,-0.5132426477217623,0.3058018699226363,0,0,UIC,rMDD
2927,incongruent,1,0.598869107981,1,-0.5127122223060634,-0.5132426477217623,0.3058018699226363,0,0,UIC,rMDD
2927,incongruent,1,0.499704450704,-1,-0.6937384539195914,-0.5132426477217623,0.3058018699226363,0,0,UIC,rMDD
2927,congruent,1,0.447711962441,1,-0.8036051943222488,-0.7632250351855749,0.0856131085436891,0,0,UIC,rMDD
2927,incongruent,1,0.493830046948,-1,-0.7055638555058849,-0.5132426477217623,0.3058018699226363,0,0,UIC,rMDD
2927,congruent,1,0.428621821596,1,-0.8471802835756279,-0.7632250351855749,0.0856131085436891,0,0,UIC,rMDD
2927,incongruent,1,0.599623323944,1,-0.5114536143374658,-0.5132426477217623,0.3058018699226363,0,0,UIC,rMDD
2927,incongruent,1,2.24988683568,-1,0.8108799196981468,-0.5132426477217623,0.3058018699226363,0,0,UIC,rMDD
2927,congruent,1,0.577686122066,-1,-0.5487245992184513,-0.7632250351855749,0.0856131085436891,0,0,UIC,rMDD
2927,congruent,1,0.448665389671,1,-0.8014779036509614,-0.7632250351855749,0.0856131085436891,0,0,UIC,rMDD
2927,congruent,1,0.454504938967,-1,-0.7885464986095655,-0.7632250351855749,0.0856131085436891,0,0,UIC,rMDD
2927,incongruent,1,0.575780169014,1,-0.5520293421508919,-0.5132426477217623,0.3058018699226363,0,0,UIC,rMDD
2942,incongruent,1,0.792490776332,-1,-0.2325744119962232,-0.4010305444869955,0.1241718952991165,0,0,UIC,rMDD
2942,incongruent,1,0.650496521312,1,-0.4300193287579423,-0.4010305444869955,0.1241718952991165,0,0,UIC,rMDD
2942,congruent,1,0.716836189047,-1,-0.3329079316441097,-0.5567029429064914,0.1263429490550334,0,0,UIC,rMDD
2942,congruent,1,0.53353416896,-1,-0.6282321635058571,-0.5567029429064914,0.1263429490550334,0,0,UIC,rMDD
2942,congruent,1,0.522646744126,1,-0.6488494845722363,-0.5567029429064914,0.1263429490550334,0,0,UIC,rMDD
2942,incongruent,1,0.646642984649,-1,-0.4359609379402669,-0.4010305444869955,0.1241718952991165,0,0,UIC,rMDD
2942,incongruent,1,0.672564819269,1,-0.396656786620818,-0.4010305444869955,0.1241718952991165,0,0,UIC,rMDD
2942,congruent,1,0.66742560326,1,-0.4043273507096527,-0.5567029429064914,0.1263429490550334,0,0,UIC,rMDD
2942,incongruent,1,0.741815449429,1,-0.2986547871969081,-0.4010305444869955,0.1241718952991165,0,0,UIC,rMDD
2942,congruent,1,0.631806331978,1,-0.4591723685402835,-0.5567029429064914,0.1263429490550334,0,0,UIC,rMDD
2942,incongruent,1,0.605838530307,-1,-0.5011417800559813,-0.4010305444869955,0.1241718952991165,0,0,UIC,rMDD
2942,incongruent,1,0.75680292345,-1,-0.2786523983423101,-0.4010305444869955,0.1241718952991165,0,0,UIC,rMDD
2942,congruent,1,0.642806125254,-1,-0.4419121161442674,-0.5567029429064914,0.1263429490550334,0,0,UIC,rMDD
2942,congruent,1,0.579585897817,1,-0.5454413997201545,-0.5567029429064914,0.1263429490550334,0,0,UIC,rMDD
2942,congruent,1,0.545711676822,-1,-0.6056645071409273,-0.5567029429064914,0.1263429490550334,0,0,UIC,rMDD
2942,incongruent,1,0.582746918308,1,-0.5400022892690133,-0.4010305444869955,0.1241718952991165,0,0,UIC,rMDD
2942,congruent,1,0.528664339629,-1,-0.6374015671757338,-0.5567029429064914,0.1263429490550334,0,0,UIC,rMDD
2942,congruent,1,0.635706578453,1,-0.4530181767324557,-0.5567029429064914,0.1263429490550334,0,0,UIC,rMDD
2942,congruent,1,0.515866966756,-1,-0.6619063631052677,-0.5567029429064914,0.1263429490550334,0,0,UIC,rMDD
2942,incongruent,1,0.660832244481,1,-0.4142552618384397,-0.4010305444869955,0.1241718952991165,0,0,UIC,rMDD
2942,incongruent,1,0.549813769203,1,-0.5981756595431257,-0.4010305444869955,0.1241718952991165,0,0,UIC,rMDD
2942,congruent,1,0.519562528488,1,-0.6547681128600846,-0.5567029429064914,0.1263429490550334,0,0,UIC,rMDD
2942,incongruent,1,0.66480101727,-1,-0.4082675052525387,-0.4010305444869955,0.1241718952991165,0,0,UIC,rMDD
2942,incongruent,1,0.696552877403,-1,-0.3616115699031113,-0.4010305444869955,0.1241718952991165,0,0,UIC,rMDD
2942,incongruent,1,0.740760033208,-1,-0.3000785479586988,-0.4010305444869955,0.1241718952991165,0,0,UIC,rMDD
2942,incongruent,1,0.566703107427,-1,-0.5679197324494425,-0.4010305444869955,0.1241718952991165,0,0,UIC,rMDD
2942,congruent,1,0.553570855104,1,-0.5913655221917009,-0.5567029429064914,0.1263429490550334,0,0,UIC,rMDD
2942,congruent,1,0.66872687578,1,-0.4023795596426602,-0.5567029429064914,0.1263429490550334,0,0,UIC,rMDD
2942,congruent,1,0.790737257607,-1,-0.2347895312392098,-0.5567029429064914,0.1263429490550334,0,0,UIC,rMDD
2942,incongruent,1,0.702425182603,1,-0.353216385078678,-0.4010305444869955,0.1241718952991165,0,0,UIC,rMDD
2942,incongruent,1,0.625825614919,1,-0.4686835171069173,-0.4010305444869955,0.1241718952991165,0,0,UIC,rMDD
2942,congruent,1,0.528758836137,-1,-0.6372228373910699,-0.5567029429064914,0.1263429490550334,0,0,UIC,rMDD
2942,congruent,1,0.57474824999,-1,-0.5538231601629684,-0.5567029429064914,0.1263429490550334,0,0,UIC,rMDD
2942,incongruent,1,0.905812480789,-1,-0.0989229692079856,-0.4010305444869955,0.1241718952991165,0,0,UIC,rMDD
2942,incongruent,1,0.621700982506,-1,-0.4752960373542255,-0.4010305444869955,0.1241718952991165,0,0,UIC,rMDD
2942,congruent,1,0.569866457159,-1,-0.5623532312886849,-0.5567029429064914,0.1263429490550334,0,0,UIC,rMDD
2942,congruent,1,0.4696530612,1,-0.7557610245175022,-0.5567029429064914,0.1263429490550334,0,0,UIC,rMDD
2942,incongruent,1,0.650732238562,1,-0.4296570292763335,-0.4010305444869955,0.1241718952991165,0,0,UIC,rMDD
2942,congruent,1,0.534566170181,1,-0.6262997578987757,-0.5567029429064914,0.1263429490550334,0,0,UIC,rMDD
2942,incongruent,1,0.639876689954,1,-0.4464797931389185,-0.4010305444869955,0.1241718952991165,0,0,UIC,rMDD
2942,congruent,1,0.486648816165,-1,-0.7202125327335734,-0.5567029429064914,0.1263429490550334,0,0,UIC,rMDD
2942,congruent,1,0.519558093556,1,-0.6547766487930763,-0.5567029429064914,0.1263429490550334,0,0,UIC,rMDD
2942,incongruent,1,0.629800269702,1,-0.4623525420809444,-0.4010305444869955,0.1241718952991165,0,0,UIC,rMDD
2942,incongruent,1,0.546748757182,-1,-0.603765892528895,-0.4010305444869955,0.1241718952991165,0,0,UIC,rMDD
2942,congruent,1,0.554630016379,1,-0.5894540246920074,-0.5567029429064914,0.1263429490550334,0,0,UIC,rMDD
2942,incongruent,1,0.777588705405,1,-0.2515575508835253,-0.4010305444869955,0.1241718952991165,0,0,UIC,rMDD
2942,congruent,1,0.571877050518,-1,-0.5588312573535337,-0.5567029429064914,0.1263429490550334,0,0,UIC,rMDD
2942,incongruent,1,0.762745882289,-1,-0.2708303539066491,-0.4010305444869955,0.1241718952991165,0,0,UIC,rMDD
2948,congruent,1,0.562976284888,-1,-0.5745177744862956,-0.7186456048933715,0.1265586450640593,0,0,UIC,HC
2948,congruent,1,0.437413554635,-1,-0.8268761821135406,-0.7186456048933715,0.1265586450640593,0,0,UIC,HC
2948,incongruent,1,0.580817769493,1,-0.5433182210824701,-0.5930148849536565,0.146748493963578,0,0,UIC,HC
2948,congruent,1,0.45733008917,1,-0.7823498530411798,-0.7186456048933715,0.1265586450640593,0,0,UIC,HC
2948,incongruent,1,0.565712523636,-1,-0.5696692385786236,-0.5930148849536565,0.146748493963578,0,0,UIC,HC
2948,incongruent,0,0.422317029588,-1,-0.8619989920490038,-0.5930148849536565,0.146748493963578,0,0,UIC,HC
2948,incongruent,1,0.651856063659,-1,-0.4279315026860403,-0.5930148849536565,0.146748493963578,0,0,UIC,HC
2948,congruent,1,0.533502817948,1,-0.6282909262524042,-0.7186456048933715,0.1265586450640593,0,0,UIC,HC
2948,congruent,1,0.545549027668,-1,-0.6059626011793824,-0.7186456048933715,0.1265586450640593,0,0,UIC,HC
2948,congruent,1,0.373648682399,1,-0.9844392749093924,-0.7186456048933715,0.1265586450640593,0,0,UIC,HC
2948,congruent,1,0.573792556543,1,-0.55548734773407,-0.7186456048933715,0.1265586450640593,0,0,UIC,HC
2948,congruent,1,0.462913001321,-1,-0.7702161446661879,-0.7186456048933715,0.1265586450640593,0,0,UIC,HC
2948,incongruent,1,0.495583701783,-1,-0.7020190155971983,-0.5930148849536565,0.146748493963578,0,0,UIC,HC
2948,incongruent,1,0.552404843439,1,-0.5934740894930418,-0.5930148849536565,0.146748493963578,0,0,UIC,HC
2948,incongruent,1,0.602627688033,1,-0.5064557057261619,-0.5930148849536565,0.146748493963578,0,0,UIC,HC
2948,incongruent,1,0.519776900909,-1,-0.6543555961827094,-0.5930148849536565,0.146748493963578,0,0,UIC,HC
2948,incongruent,0,0.414816538772,-1,-0.879918931743702,-0.5930148849536565,0.146748493963578,0,0,UIC,HC
2948,incongruent,1,0.631706283497,-1,-0.4593307341632044,-0.5930148849536565,0.146748493963578,0,0,UIC,HC
2948,incongruent,1,0.439761798138,-1,-0.8215220665305057,-0.5930148849536565,0.146748493963578,0,0,UIC,HC
2948,congruent,1,0.478804034457,1,-0.7364638791496085,-0.7186456048933715,0.1265586450640593,0,0,UIC,HC
2948,congruent,1,0.477519192303,-1,-0.7391509265643693,-0.7186456048933715,0.1265586450640593,0,0,UIC,HC
2948,congruent,1,0.445862448023,1,-0.8077447870354746,-0.7186456048933715,0.1265586450640593,0,0,UIC,HC
2948,congruent,1,0.601511779134,-1,-0.5083091608264783,-0.7186456048933715,0.1265586450640593,0,0,UIC,HC
2948,incongruent,1,0.611748546256,1,-0.4914339530316116,-0.5930148849536565,0.146748493963578,0,0,UIC,HC
2948,congruent,1,0.520605282665,1,-0.6527631392103815,-0.7186456048933715,0.1265586450640593,0,0,UIC,HC
2948,incongruent,1,0.558884093805,-1,-0.5818131729343393,-0.5930148849536565,0.146748493963578,0,0,UIC,HC
2948,congruent,1,0.643799868755,-1,-0.4403673639773445,-0.7186456048933715,0.1265586450640593,0,0,UIC,HC
2948,incongruent,1,0.595740426383,-1,-0.5179502329888905,-0.5930148849536565,0.146748493963578,0,0,UIC,HC
2948,congruent,1,0.503514464124,1,-0.6861428400782422,-0.7186456048933715,0.1265586450640593,0,0,UIC,HC
2948,incongruent,1,0.563697014631,1,-0.5732383799331129,-0.5930148849536565,0.146748493963578,0,0,UIC,HC
2948,incongruent,1,0.587498356585,1,-0.531881830269863,-0.5930148849536565,0.146748493963578,0,0,UIC,HC
2948,congruent,1,0.453843859812,-1,-0.7900020612141633,-0.7186456048933715,0.1265586450640593,0,0,UIC,HC
2948,incongruent,1,0.529789441281,-1,-0.635275631974702,-0.5930148849536565,0.146748493963578,0,0,UIC,HC
2948,incongruent,1,0.533738190895,1,-0.6278498394709447,-0.5930148849536565,0.146748493963578,0,0,UIC,HC
2948,congruent,1,0.424861750935,-1,-0.8559914548942594,-0.7186456048933715,0.1265586450640593,0,0,UIC,HC
2948,congruent,1,0.432431111636,1,-0.8383322447508577,-0.7186456048933715,0.1265586450640593,0,0,UIC,HC
2948,incongruent,0,0.465689502907,-1,-0.7642361697095161,-0.5930148849536565,0.146748493963578,0,0,UIC,HC
2948,incongruent,1,0.550797676534,-1,-0.5963877304843922,-0.5930148849536565,0.146748493963578,0,0,UIC,HC
2948,congruent,1,0.457886579284,1,-0.7811337690213793,-0.7186456048933715,0.1265586450640593,0,0,UIC,HC
2948,congruent,1,0.484776586018,-1,-0.7240671415608215,-0.7186456048933715,0.1265586450640593,0,0,UIC,HC
2948,incongruent,1,0.704578307765,-1,-0.3501558001441481,-0.5930148849536565,0.146748493963578,0,0,UIC,HC
2948,incongruent,1,0.602686668884,1,-0.5063578377289734,-0.5930148849536565,0.146748493963578,0,0,UIC,HC
2948,congruent,1,0.459531468263,1,-0.7775478558250949,-0.7186456048933715,0.1265586450640593,0,0,UIC,HC
2948,congruent,1,0.464632050842,-1,-0.7665094751406131,-0.7186456048933715,0.1265586450640593,0,0,UIC,HC
2948,congruent,1,0.438772646269,1,-0.8237738901061716,-0.7186456048933715,0.1265586450640593,0,0,UIC,HC
2948,incongruent,0,0.483713016405,-1,-0.7262634894367082,-0.5930148849536565,0.146748493963578,0,0,UIC,HC
2948,congruent,1,0.553743096951,-1,-0.5910544237032017,-0.7186456048933715,0.1265586450640593,0,0,UIC,HC
2948,incongruent,1,0.733799772605,-1,-0.3095190769478936,-0.5930148849536565,0.146748493963578,0,0,UIC,HC
2950,congruent,1,0.461970663379,-1,-0.7722538890962102,-0.8802363926034297,0.1129203196097155,0,0,UIC,HC
2950,incongruent,1,0.508595810196,-1,-0.676101663943897,-0.7968173540233887,0.1473376159211269,0,0,UIC,HC
2950,congruent,1,0.434729040689,1,-0.8330323369409379,-0.8802363926034297,0.1129203196097155,0,0,UIC,HC
2950,congruent,1,0.476705041604,1,-0.7408573407752588,-0.8802363926034297,0.1129203196097155,0,0,UIC,HC
2950,congruent,1,0.436558455852,-1,-0.8288329931912297,-0.8802363926034297,0.1129203196097155,0,0,UIC,HC
2950,incongruent,1,0.56568014592,1,-0.5697264737311573,-0.7968173540233887,0.1473376159211269,0,0,UIC,HC
2950,incongruent,1,0.541539228221,-1,-0.6133397715435822,-0.7968173540233887,0.1473376159211269,0,0,UIC,HC
2950,incongruent,1,0.425601422963,1,-0.8542519975321902,-0.7968173540233887,0.1473376159211269,0,0,UIC,HC
2950,incongruent,1,0.508578065681,-1,-0.676136553780183,-0.7968173540233887,0.1473376159211269,0,0,UIC,HC
2950,congruent,1,0.500362631594,1,-0.692422180248196,-0.8802363926034297,0.1129203196097155,0,0,UIC,HC
2950,congruent,1,0.423799396177,-1,-0.8584950579318698,-0.8802363926034297,0.1129203196097155,0,0,UIC,HC
2950,incongruent,1,0.382563943624,1,-0.9608594668141716,-0.7968173540233887,0.1473376159211269,0,0,UIC,HC
2950,incongruent,1,0.393759640482,1,-0.9320146053782072,-0.7968173540233887,0.1473376159211269,0,0,UIC,HC
2950,congruent,1,0.524863412965,1,-0.6446172160204534,-0.8802363926034297,0.1129203196097155,0,0,UIC,HC
2950,incongruent,1,0.444392654487,-1,-0.8110467504104242,-0.7968173540233887,0.1473376159211269,0,0,UIC,HC
2950,congruent,1,0.349458548607,-1,-1.051370326324876,-0.8802363926034297,0.1129203196097155,0,0,UIC,HC
2950,incongruent,1,0.413671420291,-1,-0.8826832910749209,-0.7968173540233887,0.1473376159211269,0,0,UIC,HC
2950,congruent,1,0.373216644377,-1,-0.985596211922536,-0.8802363926034297,0.1129203196097155,0,0,UIC,HC
2950,incongruent,1,0.372536322081,-1,-0.9874207369739288,-0.7968173540233887,0.1473376159211269,0,0,UIC,HC
2950,incongruent,1,0.39776967135,1,-0.9218821564189804,-0.7968173540233887,0.1473376159211269,0,0,UIC,HC
2950,congruent,1,0.394564292168,1,-0.929973180699552,-0.8802363926034297,0.1129203196097155,0,0,UIC,HC
2950,incongruent,1,0.567616266146,1,-0.5663096763443665,-0.7968173540233887,0.1473376159211269,0,0,UIC,HC
2950,congruent,1,0.479043963467,-1,-0.7359629040146434,-0.8802363926034297,0.1129203196097155,0,0,UIC,HC
2950,congruent,1,0.37457196976,1,-0.9819713188941014,-0.8802363926034297,0.1129203196097155,0,0,UIC,HC
2950,congruent,1,0.376577827709,1,-0.9766305394019992,-0.8802363926034297,0.1129203196097155,0,0,UIC,HC
2950,incongruent,1,0.372546081324,1,-0.9873945405614086,-0.7968173540233887,0.1473376159211269,0,0,UIC,HC
2950,congruent,1,0.395544088612,-1,-0.927493022356528,-0.8802363926034297,0.1129203196097155,0,0,UIC,HC
2950,incongruent,1,0.434475812371,1,-0.8336150035569209,-0.7968173540233887,0.1473376159211269,0,0,UIC,HC
2950,congruent,1,0.474587647046,-1,-0.7453089634565906,-0.8802363926034297,0.1129203196097155,0,0,UIC,HC
2950,incongruent,1,0.454729807486,-1,-0.788051866118975,-0.7968173540233887,0.1473376159211269,0,0,UIC,HC
2950,congruent,1,0.367624066329,1,-1.0006944218487073,-0.8802363926034297,0.1129203196097155,0,0,UIC,HC
2950,incongruent,1,0.419609593324,-1,-0.8684305396994242,-0.7968173540233887,0.1473376159211269,0,0,UIC,HC
2950,congruent,1,0.425336553263,1,-0.8548745334066118,-0.8802363926034297,0.1129203196097155,0,0,UIC,HC
2950,incongruent,1,0.445677564288,-1,-0.8081595384433694,-0.7968173540233887,0.1473376159211269,0,0,UIC,HC
2950,congruent,1,0.410667175261,1,-0.8899721850973212,-0.8802363926034297,0.1129203196097155,0,0,UIC,HC
2950,incongruent,1,0.39373776151,1,-0.9320701712047108,-0.7968173540233887,0.1473376159211269,0,0,UIC,HC
2950,congruent,1,0.416602418117,-1,-0.8756229457626055,-0.8802363926034297,0.1129203196097155,0,0,UIC,HC
2950,incongruent,1,0.420628001275,-1,-0.8660064433337122,-0.7968173540233887,0.1473376159211269,0,0,UIC,HC
2950,incongruent,1,0.44266741804,1,-0.8149365402357901,-0.7968173540233887,0.1473376159211269,0,0,UIC,HC
2950,congruent,1,0.365539958962,-1,-1.0063796789226307,-0.8802363926034297,0.1129203196097155,0,0,UIC,HC
2950,incongruent,1,0.453633878455,-1,-0.790464841405661,-0.7968173540233887,0.1473376159211269,0,0,UIC,HC
2950,congruent,1,0.377409391829,1,-0.974424760747896,-0.8802363926034297,0.1129203196097155,0,0,UIC,HC
2950,incongruent,1,0.603328911727,-1,-0.5052927720465117,-0.7968173540233887,0.1473376159211269,0,0,UIC,HC
2950,congruent,1,0.406304677075,-1,-0.9006519646714971,-0.8802363926034297,0.1129203196097155,0,0,UIC,HC
2950,incongruent,1,0.572547629342,1,-0.5576593516570789,-0.7968173540233887,0.1473376159211269,0,0,UIC,HC
2950,congruent,1,0.41039777208,1,-0.8906284137952832,-0.8802363926034297,0.1129203196097155,0,0,UIC,HC
2950,congruent,1,0.357862288008,-1,-1.027607036954777,-0.8802363926034297,0.1129203196097155,0,0,UIC,HC
2950,incongruent,1,0.398614001809,1,-0.9197617443517576,-0.7968173540233887,0.1473376159211269,0,0,UIC,HC
2974,incongruent,1,0.824483042284,1,-0.1929987044662788,-0.4643683939493228,0.2270137204563826,0,0,UIC,rMDD
2974,incongruent,1,0.700922768665,-1,-0.3553575711054925,-0.4643683939493228,0.2270137204563826,0,0,UIC,rMDD
2974,incongruent,1,0.645765062433,1,-0.4373195217915786,-0.4643683939493228,0.2270137204563826,0,0,UIC,rMDD
2974,congruent,1,0.551670645476,-1,-0.59480406752189,-0.6427861255288002,0.1413828231058425,0,0,UIC,rMDD
2974,congruent,1,0.380814959507,1,-0.9654416924168966,-0.6427861255288002,0.1413828231058425,0,0,UIC,rMDD
2974,congruent,1,0.613641497585,-1,-0.4883444015141157,-0.6427861255288002,0.1413828231058425,0,0,UIC,rMDD
2974,incongruent,0,0.560736392888,1,-0.5785043717915334,-0.4643683939493228,0.2270137204563826,0,0,UIC,rMDD
2974,congruent,1,0.598714566824,1,-0.5129703105901793,-0.6427861255288002,0.1413828231058425,0,0,UIC,rMDD
2974,congruent,1,0.471599941529,-1,-0.7516242343032377,-0.6427861255288002,0.1413828231058425,0,0,UIC,rMDD
2974,incongruent,1,0.791514899203,1,-0.2338065758293956,-0.4643683939493228,0.2270137204563826,0,0,UIC,rMDD
2974,incongruent,0,0.454589687125,1,-0.7883600534237442,-0.4643683939493228,0.2270137204563826,0,0,UIC,rMDD
2974,incongruent,1,0.593705519104,-1,-0.5213718416328325,-0.4643683939493228,0.2270137204563826,0,0,UIC,rMDD
2974,congruent,1,0.497726061564,1,-0.697705430486164,-0.6427861255288002,0.1413828231058425,0,0,UIC,rMDD
2974,congruent,1,0.530697134818,1,-0.6335637880360482,-0.6427861255288002,0.1413828231058425,0,0,UIC,rMDD
2974,incongruent,0,0.471822692376,-1,-0.7511520157171363,-0.4643683939493228,0.2270137204563826,0,0,UIC,rMDD
2974,congruent,1,0.602785499128,-1,-0.5061938683784667,-0.6427861255288002,0.1413828231058425,0,0,UIC,rMDD
2974,incongruent,1,0.9377669638,-1,-0.0642538002877327,-0.4643683939493228,0.2270137204563826,0,0,UIC,rMDD
2974,congruent,1,0.570735193416,-1,-0.5608299362372553,-0.6427861255288002,0.1413828231058425,0,0,UIC,rMDD
2974,incongruent,1,0.565871906785,1,-0.569387539492335,-0.4643683939493228,0.2270137204563826,0,0,UIC,rMDD
2974,incongruent,1,1.10668394543,1,0.1013681074787619,-0.4643683939493228,0.2270137204563826,0,0,UIC,rMDD
2974,incongruent,1,0.629711941928,-1,-0.4624927991952927,-0.4643683939493228,0.2270137204563826,0,0,UIC,rMDD
2974,congruent,1,0.679417544862,-1,-0.3865193995355119,-0.6427861255288002,0.1413828231058425,0,0,UIC,rMDD
2974,congruent,1,0.631529146239,1,-0.4596111842756558,-0.6427861255288002,0.1413828231058425,0,0,UIC,rMDD
2974,congruent,1,0.453817848817,1,-0.7900593755081559,-0.6427861255288002,0.1413828231058425,0,0,UIC,rMDD
2974,congruent,1,0.580802195587,1,-0.5433450351980487,-0.6427861255288002,0.1413828231058425,0,0,UIC,rMDD
2974,congruent,1,0.507750613482,1,-0.677764870286036,-0.6427861255288002,0.1413828231058425,0,0,UIC,rMDD
2974,congruent,1,0.479655369635,-1,-0.7346874128783099,-0.6427861255288002,0.1413828231058425,0,0,UIC,rMDD
2974,incongruent,0,0.430872305808,1,-0.8419435070036471,-0.4643683939493228,0.2270137204563826,0,0,UIC,rMDD
2974,incongruent,1,0.673810964472,-1,-0.3948056755508084,-0.4643683939493228,0.2270137204563826,0,0,UIC,rMDD
2974,incongruent,1,0.62941990775,1,-0.4629566651253159,-0.4643683939493228,0.2270137204563826,0,0,UIC,rMDD
2974,incongruent,1,0.671796866469,1,-0.397799266195591,-0.4643683939493228,0.2270137204563826,0,0,UIC,rMDD
2974,congruent,1,0.593718266198,-1,-0.5213503714649643,-0.6427861255288002,0.1413828231058425,0,0,UIC,rMDD
2974,congruent,1,0.585835977911,-1,-0.5347154297605377,-0.6427861255288002,0.1413828231058425,0,0,UIC,rMDD
2974,incongruent,1,0.565871834672,1,-0.5693876669293111,-0.4643683939493228,0.2270137204563826,0,0,UIC,rMDD
2974,congruent,1,0.450674078034,-1,-0.7970108658408445,-0.6427861255288002,0.1413828231058425,0,0,UIC,rMDD
2974,incongruent,1,0.719722828518,-1,-0.3288891014799762,-0.4643683939493228,0.2270137204563826,0,0,UIC,rMDD
2974,congruent,1,0.425649307374,1,-0.8541394938729415,-0.6427861255288002,0.1413828231058425,0,0,UIC,rMDD
2974,congruent,1,0.49185883278,1,-0.7095635289046547,-0.6427861255288002,0.1413828231058425,0,0,UIC,rMDD
2974,incongruent,1,0.5786273467,-1,-0.5470966239897582,-0.4643683939493228,0.2270137204563826,0,0,UIC,rMDD
2974,incongruent,1,0.641612049225,1,-0.4437714426420214,-0.4643683939493228,0.2270137204563826,0,0,UIC,rMDD
2974,congruent,1,0.51786036397,1,-0.6580496406880197,-0.6427861255288002,0.1413828231058425,0,0,UIC,rMDD
2974,congruent,1,0.548781126704,-1,-0.6000555932784332,-0.6427861255288002,0.1413828231058425,0,0,UIC,rMDD
2974,incongruent,0,0.431834040487,1,-0.8397139300878635,-0.4643683939493228,0.2270137204563826,0,0,UIC,rMDD
2974,congruent,1,0.441796741474,-1,-0.8169053635914503,-0.6427861255288002,0.1413828231058425,0,0,UIC,rMDD
2974,congruent,1,0.531734104517,1,-0.6316117181233886,-0.6427861255288002,0.1413828231058425,0,0,UIC,rMDD
2974,incongruent,1,0.688818081981,1,-0.3727780747889625,-0.4643683939493228,0.2270137204563826,0,0,UIC,rMDD
2974,incongruent,1,0.574716939327,-1,-0.5538776388253911,-0.4643683939493228,0.2270137204563826,0,0,UIC,rMDD
2974,incongruent,1,0.583806798771,1,-0.5381851749105092,-0.4643683939493228,0.2270137204563826,0,0,UIC,rMDD
2976,incongruent,1,0.538400375587,-1,-0.6191528030534225,-0.4888552874930579,0.1153107920327695,0,0,UIC,rMDD
2976,congruent,1,0.622463173709,1,-0.474070811093621,-0.6118936514148995,0.1623177354155701,0,0,UIC,rMDD
2976,incongruent,1,0.621799399061,1,-0.4751377478085778,-0.4888552874930579,0.1153107920327695,0,0,UIC,rMDD
2976,congruent,1,0.420527173709,-1,-0.866246179281327,-0.6118936514148995,0.1623177354155701,0,0,UIC,rMDD
2976,incongruent,1,0.614786178404,1,-0.4864807490212862,-0.4888552874930579,0.1153107920327695,0,0,UIC,rMDD
2976,incongruent,1,0.614711361502,-1,-0.4866024522368909,-0.4888552874930579,0.1153107920327695,0,0,UIC,rMDD
2976,congruent,1,0.523812920188,-1,-0.6466206809508008,-0.6118936514148995,0.1623177354155701,0,0,UIC,rMDD
2976,congruent,1,0.700686122066,1,-0.3556952496159724,-0.6118936514148995,0.1623177354155701,0,0,UIC,rMDD
2976,congruent,1,0.483631737089,-1,-0.7264315356599346,-0.6118936514148995,0.1623177354155701,0,0,UIC,rMDD
2976,incongruent,1,0.737833953052,1,-0.3040364755615301,-0.4888552874930579,0.1153107920327695,0,0,UIC,rMDD
2976,congruent,1,0.513814723005,1,-0.6658925395884496,-0.6118936514148995,0.1623177354155701,0,0,UIC,rMDD
2976,congruent,1,0.574772657277,-1,-0.5537806950162287,-0.6118936514148995,0.1623177354155701,0,0,UIC,rMDD
2976,incongruent,1,0.631498929577,-1,-0.4596590322413255,-0.4888552874930579,0.1153107920327695,0,0,UIC,rMDD
2976,incongruent,1,0.592533183099,-1,-0.5233484023107053,-0.4888552874930579,0.1153107920327695,0,0,UIC,rMDD
2976,incongruent,1,0.688786178404,1,-0.3728243922662281,-0.4888552874930579,0.1153107920327695,0,0,UIC,rMDD
2976,congruent,1,0.520714366197,1,-0.652553629032564,-0.6118936514148995,0.1623177354155701,0,0,UIC,rMDD
2976,congruent,1,0.620849877934,-1,-0.4766659687304029,-0.6118936514148995,0.1623177354155701,0,0,UIC,rMDD
2976,congruent,1,0.507685521127,-1,-0.6778930759956235,-0.6118936514148995,0.1623177354155701,0,0,UIC,rMDD
2976,incongruent,1,0.630745314554,-1,-0.4608531198611328,-0.4888552874930579,0.1153107920327695,0,0,UIC,rMDD
2976,incongruent,1,0.605665389671,1,-0.5014276076696169,-0.4888552874930579,0.1153107920327695,0,0,UIC,rMDD
2976,incongruent,1,0.616685521127,-1,-0.4833960752447353,-0.4888552874930579,0.1153107920327695,0,0,UIC,rMDD
2976,incongruent,1,0.730536187793,1,-0.3139765106295935,-0.4888552874930579,0.1153107920327695,0,0,UIC,rMDD
2976,congruent,1,0.539709859155,1,-0.6167235816811487,-0.6118936514148995,0.1623177354155701,0,0,UIC,rMDD
2976,congruent,1,0.794791586854,1,-0.2296753535970368,-0.6118936514148995,0.1623177354155701,0,0,UIC,rMDD
2976,incongruent,1,0.571709258216,1,-0.559124706657574,-0.4888552874930579,0.1153107920327695,0,0,UIC,rMDD
2976,congruent,1,0.519749821596,1,-0.6544076954937128,-0.6118936514148995,0.1623177354155701,0,0,UIC,rMDD
