subject_id,trial_congruent_fac,resp_corr,resp_rt,resp_value,log_rt,mean_log_rt,sd_log_rt,exclude_trial,exclude_part
100,congruent,1,0.67748246012,right,-0.38937161568518136,-0.3430241478648112,0.4041206907489686,0,0
100,incongruent,1,1.18229723599,right,0.16745935605961865,-0.24849858392543744,0.19868009212442167,0,0
100,congruent,1,0.823712339963,right,-0.19393391200960006,-0.3430241478648112,0.4041206907489686,0,0
100,incongruent,1,1.01971393846,left,0.019522135471829617,-0.24849858392543744,0.19868009212442167,0,0
100,congruent,1,0.79274525935,left,-0.23225334558786787,-0.3430241478648112,0.4041206907489686,0,0
100,incongruent,1,0.873922599177,left,-0.13476346654225776,-0.24849858392543744,0.19868009212442167,0,0
100,congruent,1,0.663641224952,left,-0.41001359940071785,-0.3430241478648112,0.4041206907489686,0,0
100,incongruent,1,0.82755139673,right,-0.18928406280775445,-0.24849858392543744,0.19868009212442167,0,0
100,incongruent,1,0.939478490924,right,-0.06243035456418913,-0.24849858392543744,0.19868009212442167,0,0
100,congruent,1,0.790251901218,right,-0.2354035220455836,-0.3430241478648112,0.4041206907489686,0,0
100,congruent,1,0.576396979685,left,-0.5509586548340656,-0.3430241478648112,0.4041206907489686,0,0
100,incongruent,1,0.936359216737,left,-0.06575609756353135,-0.24849858392543744,0.19868009212442167,0,0
100,incongruent,1,0.730300637295,right,-0.3142989977082269,-0.24849858392543744,0.19868009212442167,0,0
100,congruent,1,0.777230423691,right,-0.25201841699153343,-0.3430241478648112,0.4041206907489686,0,0
100,congruent,1,0.667318076517,left,-0.40448847039856645,-0.3430241478648112,0.4041206907489686,0,0
100,incongruent,1,0.822490089029,left,-0.19541884622797562,-0.24849858392543744,0.19868009212442167,0,0
100,incongruent,1,0.56939082608,right,-0.5631882158240162,-0.24849858392543744,0.19868009212442167,0,0
100,congruent,1,0.672766664764,left,-0.396356718572296,-0.3430241478648112,0.4041206907489686,0,0
100,congruent,1,0.711624735212,right,-0.34020456380019276,-0.3430241478648112,0.4041206907489686,0,0
100,incongruent,1,0.682726798533,left,-0.38166050158142323,-0.24849858392543744,0.19868009212442167,0,0
100,incongruent,1,0.700674673165,right,-0.3557115893067062,-0.24849858392543744,0.19868009212442167,0,0
100,congruent,1,0.607517984574,right,-0.4983734999685933,-0.3430241478648112,0.4041206907489686,0,0
100,congruent,1,0.57758458053,left,-0.548900387518169,-0.3430241478648112,0.4041206907489686,0,0
100,incongruent,1,0.858596815629,left,-0.15245583199310364,-0.24849858392543744,0.19868009212442167,0,0
100,congruent,1,0.530563583754,left,-0.6338154718350766,-0.3430241478648112,0.4041206907489686,0,0
100,congruent,1,0.550470209998,right,-0.5969824387286917,-0.3430241478648112,0.4041206907489686,0,0
100,incongruent,1,0.664647727102,left,-0.40849811236594297,-0.24849858392543744,0.19868009212442167,0,0
100,incongruent,1,0.711723938067,left,-0.34006517018986665,-0.24849858392543744,0.19868009212442167,0,0
100,congruent,1,0.597426317482,left,-0.515124320802521,-0.3430241478648112,0.4041206907489686,0,0
100,congruent,1,3.2457073041,right,1.1773332937697958,-0.3430241478648112,0.4041206907489686,0,0
100,incongruent,1,0.663519066262,right,-0.4101976897342724,-0.24849858392543744,0.19868009212442167,0,0
100,incongruent,1,0.742499030987,right,-0.29773371337414745,-0.24849858392543744,0.19868009212442167,0,0
100,incongruent,1,0.66633910935,right,-0.40595656482823717,-0.24849858392543744,0.19868009212442167,0,0
100,incongruent,1,0.697464128505,right,-0.36030419527578234,-0.24849858392543744,0.19868009212442167,0,0
100,incongruent,1,1.11793426939,left,0.11148257997232906,-0.24849858392543744,0.19868009212442167,0,0
100,congruent,1,1.72219748027,left,0.5436010801909467,-0.3430241478648112,0.4041206907489686,0,0
100,congruent,1,0.656031549248,left,-0.42154639782864317,-0.3430241478648112,0.4041206907489686,0,0
100,congruent,1,0.570620324326,right,-0.5610312216187202,-0.3430241478648112,0.4041206907489686,0,0
100,incongruent,1,0.624183334185,left,-0.4713111489812289,-0.24849858392543744,0.19868009212442167,0,0
100,congruent,1,0.583073050031,right,-0.5394428002563624,-0.3430241478648112,0.4041206907489686,0,0
100,incongruent,1,1.01160861805,right,0.011541755004351712,-0.24849858392543744,0.19868009212442167,0,0
100,congruent,1,0.645615865366,right,-0.4375505877217811,-0.3430241478648112,0.4041206907489686,0,0
100,congruent,1,0.583584592549,left,-0.5385658633862608,-0.3430241478648112,0.4041206907489686,0,0
100,incongruent,1,0.613799503024,right,-0.4880869464677316,-0.24849858392543744,0.19868009212442167,0,0
100,congruent,1,0.531484091667,right,-0.6320820126603057,-0.3430241478648112,0.4041206907489686,0,0
100,congruent,1,0.535209991797,left,-0.6250961010654813,-0.3430241478648112,0.4041206907489686,0,0
100,incongruent,1,0.656310300379,left,-0.42112158300578084,-0.24849858392543744,0.19868009212442167,0,0
100,incongruent,1,0.774351981443,left,-0.25572875237645276,-0.24849858392543744,0.19868009212442167,0,0
101,congruent,1,0.468277236767,right,-0.758694772201691,-0.6036217311338453,0.12807860467082718,0,0
101,incongruent,0,0.406497372398,right,-0.9001778139807229,-0.4551147191876404,0.1878099047735593,0,0
101,congruent,1,0.590622427609,left,-0.5265783361146199,-0.6036217311338453,0.12807860467082718,0,0
101,congruent,1,0.624763035098,left,-0.47038284498213495,-0.6036217311338453,0.12807860467082718,0,0
101,congruent,1,0.427730452236,right,-0.8492620662932255,-0.6036217311338453,0.12807860467082718,0,0
101,incongruent,1,0.745573751626,left,-0.29360122059471416,-0.4551147191876404,0.1878099047735593,0,0
101,incongruent,1,0.775678543206,right,-0.2540170930693846,-0.4551147191876404,0.1878099047735593,0,0
101,incongruent,1,0.609817179617,right,-0.49459607228136443,-0.4551147191876404,0.1878099047735593,0,0
101,incongruent,1,0.555846373189,right,-0.5872633301254548,-0.4551147191876404,0.1878099047735593,0,0
101,congruent,1,0.598527130851,left,-0.5132834235980129,-0.6036217311338453,0.12807860467082718,0,0
101,incongruent,1,0.623791014774,right,-0.47193987892948625,-0.4551147191876404,0.1878099047735593,0,0
101,congruent,1,0.607148801279,left,-0.49898137582503066,-0.6036217311338453,0.12807860467082718,0,0
101,incongruent,1,0.639416317872,left,-0.4471995220814779,-0.4551147191876404,0.1878099047735593,0,0
101,congruent,1,0.473652366344,right,-0.7472816306971418,-0.6036217311338453,0.12807860467082718,0,0
101,congruent,1,0.497739862926,right,-0.6976777020392904,-0.6036217311338453,0.12807860467082718,0,0
101,incongruent,1,0.777705453212,left,-0.2514074213320544,-0.4551147191876404,0.1878099047735593,0,0
101,incongruent,1,0.55655527879,right,-0.5859887802437541,-0.4551147191876404,0.1878099047735593,0,0
101,congruent,1,0.526566660557,left,-0.6413773446780313,-0.6036217311338453,0.12807860467082718,0,0
101,congruent,1,0.694835940904,left,-0.36407951753624496,-0.6036217311338453,0.12807860467082718,0,0
101,incongruent,1,0.68376970551,left,-0.38013410590254354,-0.4551147191876404,0.1878099047735593,0,0
101,incongruent,1,0.638747038127,right,-0.44824677445814404,-0.4551147191876404,0.1878099047735593,0,0
101,congruent,1,0.50254829589,right,-0.6880635324434133,-0.6036217311338453,0.12807860467082718,0,0
101,incongruent,1,0.666852454682,left,-0.40518646490978627,-0.4551147191876404,0.1878099047735593,0,0
101,congruent,1,0.508791723881,right,-0.6757165330456708,-0.6036217311338453,0.12807860467082718,0,0
101,congruent,1,0.516701090402,left,-0.6602907333718907,-0.6036217311338453,0.12807860467082718,0,0
101,congruent,1,0.509603822567,right,-0.6741216736396793,-0.6036217311338453,0.12807860467082718,0,0
101,incongruent,1,0.712750247136,right,-0.33862420445353364,-0.4551147191876404,0.1878099047735593,0,0
101,congruent,1,0.567611983306,right,-0.5663172216816184,-0.6036217311338453,0.12807860467082718,0,0
101,congruent,1,0.486607632514,left,-0.7202971633590997,-0.6036217311338453,0.12807860467082718,0,0
101,incongruent,1,0.537761989466,right,-0.620339215469638,-0.4551147191876404,0.1878099047735593,0,0
101,incongruent,1,0.545642198472,left,-0.6057918322032497,-0.4551147191876404,0.1878099047735593,0,0
101,incongruent,0,0.417783719386,right,-0.8727913981009725,-0.4551147191876404,0.1878099047735593,0,0
101,incongruent,1,0.857843019954,right,-0.1533341566600488,-0.4551147191876404,0.1878099047735593,0,0
101,congruent,1,0.674566287976,right,-0.39368533095639485,-0.6036217311338453,0.12807860467082718,0,0
101,incongruent,1,0.625732868007,left,-0.46883172737984513,-0.4551147191876404,0.1878099047735593,0,0
101,incongruent,1,0.545729214304,right,-0.6056323707565493,-0.4551147191876404,0.1878099047735593,0,0
101,incongruent,1,0.774886599983,left,-0.2550385829375671,-0.4551147191876404,0.1878099047735593,0,0
101,congruent,1,0.680717099392,left,-0.38460847853817315,-0.6036217311338453,0.12807860467082718,0,0
101,congruent,1,0.618620781039,left,-0.4802628256339286,-0.6036217311338453,0.12807860467082718,0,0
101,congruent,1,0.526718974319,right,-0.6410881282337575,-0.6036217311338453,0.12807860467082718,0,0
101,congruent,1,0.495800569689,right,-0.7015815103518563,-0.6036217311338453,0.12807860467082718,0,0
101,congruent,1,0.5178918642,left,-0.6579888148859545,-0.6036217311338453,0.12807860467082718,0,0
101,incongruent,1,0.754687893802,left,-0.2814510008932479,-0.4551147191876404,0.1878099047735593,0,0
101,congruent,1,0.582869365079,right,-0.5397921913608155,-0.6036217311338453,0.12807860467082718,0,0
101,congruent,1,0.529666139844,left,-0.6355083957446106,-0.6036217311338453,0.12807860467082718,0,0
101,incongruent,1,0.599762001484,left,-0.5112223666513753,-0.4551147191876404,0.1878099047735593,0,0
101,incongruent,1,0.762667798433,right,-0.2709327311923061,-0.4551147191876404,0.1878099047735593,0,0
101,incongruent,1,0.657700777914,right,-0.4190051958961486,-0.4551147191876404,0.1878099047735593,0,0
102,incongruent,1,0.956223699531,left,-0.044763397978058186,-0.3017947392289146,0.22528008976290387,0,0
102,congruent,1,0.676823474178,left,-0.39034478722245297,-0.539809587141623,0.16364152045039215,0,0
102,congruent,1,0.751541295775,left,-0.28562912016779485,-0.539809587141623,0.16364152045039215,0,0
102,congruent,1,0.662421408451,right,-0.4118533569119145,-0.539809587141623,0.16364152045039215,0,0
102,congruent,1,0.525399173709,right,-0.6435969744213137,-0.539809587141623,0.16364152045039215,0,0
102,incongruent,1,0.981740206573,right,-0.018428561053274384,-0.3017947392289146,0.22528008976290387,0,0
102,incongruent,1,0.816668394366,right,-0.20252214856350773,-0.3017947392289146,0.22528008976290387,0,0
102,incongruent,1,1.02079218779,left,0.020578980552066122,-0.3017947392289146,0.22528008976290387,0,0
102,incongruent,1,0.872599887324,right,-0.13627814741938385,-0.3017947392289146,0.22528008976290387,0,0
102,congruent,1,0.671610403756,right,-0.39807686289814,-0.539809587141623,0.16364152045039215,0,0
102,incongruent,1,0.943304225352,left,-0.05836643400635007,-0.3017947392289146,0.22528008976290387,0,0
102,incongruent,1,0.753715868545,right,-0.28273981416169974,-0.3017947392289146,0.22528008976290387,0,0
102,congruent,1,0.660808413146,left,-0.41429132509794225,-0.539809587141623,0.16364152045039215,0,0
102,incongruent,1,0.645795192488,left,-0.43727286495943996,-0.3017947392289146,0.22528008976290387,0,0
102,congruent,1,0.667486610329,right,-0.40423594834113524,-0.539809587141623,0.16364152045039215,0,0
102,congruent,1,0.604778065728,left,-0.5028937217586038,-0.539809587141623,0.16364152045039215,0,0
102,congruent,1,0.711674403756,left,-0.3401347702583289,-0.539809587141623,0.16364152045039215,0,0
102,congruent,1,0.660813220657,right,-0.4142840499279889,-0.539809587141623,0.16364152045039215,0,0
102,incongruent,1,0.721776262911,right,-0.32604007327845996,-0.3017947392289146,0.22528008976290387,0,0
102,congruent,1,0.686771455399,right,-0.3757537125595709,-0.539809587141623,0.16364152045039215,0,0
102,congruent,1,0.620677408451,left,-0.4769438031139092,-0.539809587141623,0.16364152045039215,0,0
102,incongruent,1,0.628833953052,left,-0.4638880427409339,-0.3017947392289146,0.22528008976290387,0,0
102,incongruent,1,0.857889239437,left,-0.1532802793924761,-0.3017947392289146,0.22528008976290387,0,0
102,incongruent,1,1.27959117371,right,0.2465406313748447,-0.3017947392289146,0.22528008976290387,0,0
102,incongruent,1,0.697800600939,left,-0.3598218890389485,-0.3017947392289146,0.22528008976290387,0,0
102,incongruent,1,0.613399474178,right,-0.4887388845276549,-0.3017947392289146,0.22528008976290387,0,0
102,congruent,1,0.549760338028,left,-0.5982728447618221,-0.539809587141623,0.16364152045039215,0,0
102,congruent,1,0.535857089202,left,-0.6238877780851334,-0.539809587141623,0.16364152045039215,0,0
102,congruent,1,0.409544300469,right,-0.8927101996867679,-0.539809587141623,0.16364152045039215,0,0
102,congruent,1,0.491612807512,right,-0.7100638489201033,-0.539809587141623,0.16364152045039215,0,0
102,incongruent,1,0.581576751174,left,-0.5420123274717092,-0.3017947392289146,0.22528008976290387,0,0
102,incongruent,1,0.627781370892,right,-0.46556330864947043,-0.3017947392289146,0.22528008976290387,0,0
102,congruent,1,0.474710159624,left,-0.7450508514546048,-0.539809587141623,0.16364152045039215,0,0
102,congruent,1,0.501762441315,right,-0.6896284957685572,-0.539809587141623,0.16364152045039215,0,0
102,congruent,1,0.591629934272,left,-0.5248739505885183,-0.539809587141623,0.16364152045039215,0,0
102,incongruent,1,0.668750122066,right,-0.40234479824333924,-0.3017947392289146,0.22528008976290387,0,0
102,incongruent,0,0.456842666667,right,-0.7834162216155588,-0.3017947392289146,0.22528008976290387,0,0
102,incongruent,1,0.781687323944,right,-0.24630045989859078,-0.3017947392289146,0.22528008976290387,0,0
102,congruent,1,0.581567737089,right,-0.5420278269820299,-0.539809587141623,0.16364152045039215,0,0
102,incongruent,1,0.644872112676,left,-0.4387032567663656,-0.3017947392289146,0.22528008976290387,0,0
102,congruent,1,0.618385051643,left,-0.48064395463530507,-0.539809587141623,0.16364152045039215,0,0
102,incongruent,1,0.611847173709,left,-0.491272743815848,-0.3017947392289146,0.22528008976290387,0,0
102,incongruent,1,0.722789483568,right,-0.32463726994378905,-0.3017947392289146,0.22528008976290387,0,0
102,congruent,1,0.513480901408,left,-0.6665424432789099,-0.539809587141623,0.16364152045039215,0,0
102,congruent,1,0.576757032864,right,-0.5503341880468329,-0.539809587141623,0.16364152045039215,0,0
102,incongruent,1,0.649856187793,right,-0.43100419012097724,-0.3017947392289146,0.22528008976290387,0,0
102,congruent,1,0.417548206573,right,-0.8733552765112701,-0.539809587141623,0.16364152045039215,0,0
102,incongruent,1,0.661795793427,left,-0.41279823977502583,-0.3017947392289146,0.22528008976290387,0,0
103,incongruent,1,0.872594816901,left,-0.13628395814409858,-0.24395025491988404,0.32528621001316665,0,0
103,incongruent,1,0.678388657277,right,-0.3880349144599643,-0.24395025491988404,0.32528621001316665,0,0
103,congruent,1,0.439558422535,left,-0.821984641146317,-0.5318127020934279,0.2316940567079707,0,0
103,congruent,1,0.577581859155,right,-0.5489050991768641,-0.5318127020934279,0.2316940567079707,0,0
103,congruent,1,0.589714366197,left,-0.52811698439859,-0.5318127020934279,0.2316940567079707,0,0
103,incongruent,1,0.868672,left,-0.14078967030663714,-0.24395025491988404,0.32528621001316665,0,0
103,congruent,1,0.487460469484,right,-0.7185460800700127,-0.5318127020934279,0.2316940567079707,0,0
103,incongruent,1,0.81556713615,right,-0.20387153517164452,-0.24395025491988404,0.32528621001316665,0,0
103,incongruent,1,0.917565633803,right,-0.08603116613184311,-0.24395025491988404,0.32528621001316665,0,0
103,incongruent,1,0.660496525822,left,-0.4147634149548622,-0.24395025491988404,0.32528621001316665,0,0
103,congruent,1,0.854361615023,left,-0.15740073802254573,-0.5318127020934279,0.2316940567079707,0,0
103,incongruent,1,1.53562843192,left,0.42893969915934804,-0.24395025491988404,0.32528621001316665,0,0
103,congruent,1,0.687530178404,left,-0.37464955454444215,-0.5318127020934279,0.2316940567079707,0,0
103,congruent,1,0.581443342723,right,-0.5422417447488228,-0.5318127020934279,0.2316940567079707,0,0
103,congruent,1,0.524705051643,right,-0.6449189806571434,-0.5318127020934279,0.2316940567079707,0,0
103,incongruent,1,0.80748570892,right,-0.2138299219738242,-0.24395025491988404,0.32528621001316665,0,0
103,congruent,1,0.491620319249,right,-0.7100485692538763,-0.5318127020934279,0.2316940567079707,0,0
103,incongruent,1,0.717560225352,right,-0.33189839709811625,-0.24395025491988404,0.32528621001316665,0,0
103,congruent,1,0.563649765258,left,-0.5733222039593495,-0.5318127020934279,0.2316940567079707,0,0
103,incongruent,1,1.04365547418,right,0.042729429421912025,-0.24395025491988404,0.32528621001316665,0,0
103,incongruent,1,0.657231511737,left,-0.41971894549468697,-0.24395025491988404,0.32528621001316665,0,0
103,congruent,1,0.492501333333,left,-0.7082581110985312,-0.5318127020934279,0.2316940567079707,0,0
103,congruent,1,0.455758835681,right,-0.7857914784889666,-0.5318127020934279,0.2316940567079707,0,0
103,incongruent,1,0.684582159624,left,-0.3789466127873962,-0.24395025491988404,0.32528621001316665,0,0
103,incongruent,1,0.325547305164,right,-1.1222474971280287,-0.24395025491988404,0.32528621001316665,0,0
103,congruent,1,0.427623624413,left,-0.8495118524963239,-0.5318127020934279,0.2316940567079707,0,0
103,incongruent,1,0.657344488263,left,-0.4195470626575165,-0.24395025491988404,0.32528621001316665,0,0
103,congruent,1,0.667604694836,right,-0.4040590548105563,-0.5318127020934279,0.2316940567079707,0,0
103,incongruent,1,0.734643755869,left,-0.3083695831599926,-0.24395025491988404,0.32528621001316665,0,0
103,congruent,1,0.541629633803,left,-0.6131728435873243,-0.5318127020934279,0.2316940567079707,0,0
103,congruent,1,0.49656142723,right,-0.7000480826461354,-0.5318127020934279,0.2316940567079707,0,0
103,incongruent,0,0.459524769953,left,-0.777562432321552,-0.24395025491988404,0.32528621001316665,0,0
103,incongruent,1,0.804678610329,left,-0.2173123231091398,-0.24395025491988404,0.32528621001316665,0,0
103,incongruent,1,0.693726685446,right,-0.3656772210505303,-0.24395025491988404,0.32528621001316665,0,0
103,congruent,1,0.701554816901,right,-0.35445624008203175,-0.5318127020934279,0.2316940567079707,0,0
103,incongruent,1,0.811533483568,left,-0.20882963155031212,-0.24395025491988404,0.32528621001316665,0,0
103,incongruent,1,0.874470985915,right,-0.13413616298697256,-0.24395025491988404,0.32528621001316665,0,0
103,congruent,1,0.765484206573,right,-0.26724669561519343,-0.5318127020934279,0.2316940567079707,0,0
103,congruent,1,0.605728788732,left,-0.5013229364367711,-0.5318127020934279,0.2316940567079707,0,0
103,congruent,1,0.608458666667,left,-0.4968262954565763,-0.5318127020934279,0.2316940567079707,0,0
103,congruent,1,0.628692131455,left,-0.46411359925120993,-0.5318127020934279,0.2316940567079707,0,0
103,incongruent,1,1.15260169014,left,0.14202172639103522,-0.24395025491988404,0.32528621001316665,0,0
103,congruent,1,0.532055511737,right,-0.6310074497137913,-0.5318127020934279,0.2316940567079707,0,0
103,incongruent,1,0.82459057277,left,-0.19286829126316804,-0.24395025491988404,0.32528621001316665,0,0
103,incongruent,1,0.653479098592,right,-0.4254447302212426,-0.24395025491988404,0.32528621001316665,0,0
103,incongruent,1,1.51841419718,right,0.41766649892201685,-0.24395025491988404,0.32528621001316665,0,0
103,congruent,1,1.17851725822,left,0.16425708751253384,-0.5318127020934279,0.2316940567079707,0,0
104,incongruent,1,0.902495361502,right,-0.10259172839828115,-0.1227246914049748,0.17428629753567104,0,0
104,congruent,1,0.717024788732,right,-0.3326448661321661,-0.2247727661106616,0.23297222099233011,0,0
104,incongruent,1,0.804877258216,right,-0.21706548745479481,-0.1227246914049748,0.17428629753567104,0,0
104,incongruent,1,0.709359812207,left,-0.3433923886462388,-0.1227246914049748,0.17428629753567104,0,0
104,congruent,1,0.641693333333,left,-0.4436447633508512,-0.2247727661106616,0.23297222099233011,0,0
104,congruent,1,0.591401877934,left,-0.5252594961646759,-0.2247727661106616,0.23297222099233011,0,0
104,incongruent,1,1.10439676995,left,0.09929927635933535,-0.1227246914049748,0.17428629753567104,0,0
104,congruent,1,0.6996542723,right,-0.35716896266017456,-0.2247727661106616,0.23297222099233011,0,0
104,congruent,1,0.781215286385,left,-0.2469045123459197,-0.2247727661106616,0.23297222099233011,0,0
104,incongruent,1,0.66959658216,right,-0.4010798641209738,-0.1227246914049748,0.17428629753567104,0,0
104,congruent,1,1.72752747418,right,0.5466911805447978,-0.2247727661106616,0.23297222099233011,0,0
104,incongruent,1,0.721413896714,left,-0.32654224716344443,-0.1227246914049748,0.17428629753567104,0,0
104,congruent,1,0.667244131455,right,-0.40459928585794935,-0.2247727661106616,0.23297222099233011,0,0
104,incongruent,1,0.701257352113,right,-0.35488033790357765,-0.1227246914049748,0.17428629753567104,0,0
104,incongruent,1,0.854364920188,left,-0.1573968694514995,-0.1227246914049748,0.17428629753567104,0,0
104,congruent,1,0.708561126761,left,-0.3445189472695301,-0.2247727661106616,0.23297222099233011,0,0
104,incongruent,1,1.01344574648,left,0.013356154623612322,-0.1227246914049748,0.17428629753567104,0,0
104,congruent,1,0.904516657277,left,-0.10035455831083182,-0.2247727661106616,0.23297222099233011,0,0
104,incongruent,1,0.912682215962,left,-0.09136752473515068,-0.1227246914049748,0.17428629753567104,0,0
104,congruent,1,0.724405784038,right,-0.32240356841336937,-0.2247727661106616,0.23297222099233011,0,0
104,congruent,1,0.546548206573,left,-0.6041327656071128,-0.2247727661106616,0.23297222099233011,0,0
104,incongruent,1,1.01256413146,right,0.01248585770626246,-0.1227246914049748,0.17428629753567104,0,0
104,congruent,1,0.997526873239,right,-0.0024761899905335074,-0.2247727661106616,0.23297222099233011,0,0
104,incongruent,1,0.832284093897,right,-0.1835814374339719,-0.1227246914049748,0.17428629753567104,0,0
104,congruent,1,0.98434058216,right,-0.01578332173432014,-0.2247727661106616,0.23297222099233011,0,0
104,incongruent,1,1.08463864789,right,0.08124688810179195,-0.1227246914049748,0.17428629753567104,0,0
104,incongruent,1,1.10948931455,left,0.10389983247437327,-0.1227246914049748,0.17428629753567104,0,0
104,congruent,1,0.688446046948,left,-0.3733183270677149,-0.2247727661106616,0.23297222099233011,0,0
104,incongruent,1,0.928522366197,right,-0.07416080995284455,-0.1227246914049748,0.17428629753567104,0,0
104,congruent,1,0.796626929577,left,-0.2273688031607489,-0.2247727661106616,0.23297222099233011,0,0
104,incongruent,1,0.884419605634,left,-0.12282366195645374,-0.1227246914049748,0.17428629753567104,0,0
104,congruent,1,1.05048540845,right,0.04925235110649726,-0.2247727661106616,0.23297222099233011,0,0
104,congruent,1,0.760251042254,right,-0.27410658148972644,-0.2247727661106616,0.23297222099233011,0,0
104,incongruent,1,0.708301220657,left,-0.3448858228624752,-0.1227246914049748,0.17428629753567104,0,0
104,congruent,1,0.795224,left,-0.22913144300869343,-0.2247727661106616,0.23297222099233011,0,0
104,congruent,1,0.953524769953,right,-0.047589876352497576,-0.2247727661106616,0.23297222099233011,0,0
104,incongruent,1,1.30001307042,right,0.26237431858617893,-0.1227246914049748,0.17428629753567104,0,0
104,incongruent,1,0.906291605634,left,-0.09839416420196548,-0.1227246914049748,0.17428629753567104,0,0
104,congruent,1,0.766428018779,left,-0.2660144940441137,-0.2247727661106616,0.23297222099233011,0,0
104,incongruent,1,0.749818028169,right,-0.2879247309989849,-0.1227246914049748,0.17428629753567104,0,0
104,incongruent,1,0.818176225352,left,-0.20067753116640347,-0.1227246914049748,0.17428629753567104,0,0
104,congruent,1,0.850353802817,left,-0.1621027774927982,-0.2247727661106616,0.23297222099233011,0,0
104,congruent,1,0.784632338028,right,-0.2425400301141572,-0.2247727661106616,0.23297222099233011,0,0
104,congruent,1,0.68744484507,left,-0.37477367801236366,-0.2247727661106616,0.23297222099233011,0,0
104,incongruent,1,0.987641051643,right,-0.012435955300272937,-0.1227246914049748,0.17428629753567104,0,0
104,incongruent,1,1.03447969953,left,0.03389859455030913,-0.1227246914049748,0.17428629753567104,0,0
104,congruent,1,0.910598985915,right,-0.093652669726925,-0.2247727661106616,0.23297222099233011,0,0
104,incongruent,1,0.792349295775,right,-0.23275295437392549,-0.1227246914049748,0.17428629753567104,0,0
105,incongruent,1,0.611340356808,left,-0.4921014261190251,-0.593038915148863,0.07021576714033284,0,0
105,congruent,1,0.558432525822,left,-0.5826214809817704,-0.7274724318446428,0.12571432837136134,0,0
105,congruent,1,0.562405483568,left,-0.5755321882344959,-0.7274724318446428,0.12571432837136134,0,0
105,incongruent,1,0.538401239437,right,-0.6191511985796031,-0.593038915148863,0.07021576714033284,0,0
105,congruent,1,0.514881464789,right,-0.6638185702687875,-0.7274724318446428,0.12571432837136134,0,0
105,incongruent,1,0.517602591549,right,-0.6585475289513344,-0.593038915148863,0.07021576714033284,0,0
105,incongruent,1,0.588502535211,left,-0.5301740443709487,-0.593038915148863,0.07021576714033284,0,0
105,congruent,1,0.400403380282,right,-0.9152827893139699,-0.7274724318446428,0.12571432837136134,0,0
105,congruent,1,0.502407286385,right,-0.6883441607784612,-0.7274724318446428,0.12571432837136134,0,0
105,congruent,1,0.463256150235,right,-0.7694751376284882,-0.7274724318446428,0.12571432837136134,0,0
105,incongruent,1,0.593820732394,left,-0.5211778024859653,-0.593038915148863,0.07021576714033284,0,0
105,incongruent,1,0.544552713615,left,-0.6077905302481769,-0.593038915148863,0.07021576714033284,0,0
105,congruent,1,0.607275079812,left,-0.4987734113154037,-0.7274724318446428,0.12571432837136134,0,0
105,incongruent,1,0.584495624413,right,-0.5370059841322518,-0.593038915148863,0.07021576714033284,0,0
105,incongruent,1,0.545422309859,right,-0.6061949039085395,-0.593038915148863,0.07021576714033284,0,0
105,congruent,1,0.481547605634,left,-0.730750183194042,-0.7274724318446428,0.12571432837136134,0,0
105,incongruent,1,0.574579755869,left,-0.5541163647509505,-0.593038915148863,0.07021576714033284,0,0
105,congruent,1,0.415361915493,left,-0.8786050532717804,-0.7274724318446428,0.12571432837136134,0,0
105,congruent,1,0.490381446009,right,-0.712571729478403,-0.7274724318446428,0.12571432837136134,0,0
105,congruent,1,0.47061370892,left,-0.7537176723864345,-0.7274724318446428,0.12571432837136134,0,0
105,incongruent,1,0.5896897277,right,-0.5281587656627573,-0.593038915148863,0.07021576714033284,0,0
105,incongruent,1,0.581629333333,right,-0.5419219184552224,-0.593038915148863,0.07021576714033284,0,0
105,incongruent,1,0.559372131455,left,-0.5809403180913059,-0.593038915148863,0.07021576714033284,0,0
105,congruent,1,0.444318347418,right,-0.8112139747814826,-0.7274724318446428,0.12571432837136134,0,0
105,congruent,1,0.470772056338,right,-0.7533812589301507,-0.7274724318446428,0.12571432837136134,0,0
105,incongruent,1,0.535614910798,left,-0.6243398261239511,-0.593038915148863,0.07021576714033284,0,0
105,congruent,1,0.451688826291,right,-0.794761773641048,-0.7274724318446428,0.12571432837136134,0,0
105,incongruent,1,0.595415098592,left,-0.5184964719850048,-0.593038915148863,0.07021576714033284,0,0
105,incongruent,1,0.515344788732,right,-0.6629191096451559,-0.593038915148863,0.07021576714033284,0,0
105,congruent,1,0.37726486385,left,-0.9748077815802068,-0.7274724318446428,0.12571432837136134,0,0
105,congruent,1,0.51753258216,left,-0.6586827951289022,-0.7274724318446428,0.12571432837136134,0,0
105,incongruent,1,0.517604394366,right,-0.6585440459435408,-0.593038915148863,0.07021576714033284,0,0
105,congruent,1,0.479610403756,right,-0.7347811634952509,-0.7274724318446428,0.12571432837136134,0,0
105,congruent,1,0.549626629108,right,-0.5985160874500769,-0.7274724318446428,0.12571432837136134,0,0
105,incongruent,1,0.525687624413,left,-0.6430481125922876,-0.593038915148863,0.07021576714033284,0,0
105,incongruent,1,0.472178328639,right,-0.7503985498375285,-0.593038915148863,0.07021576714033284,0,0
105,congruent,1,0.596540093897,left,-0.5166088244523813,-0.7274724318446428,0.12571432837136134,0,0
105,incongruent,1,0.519634441315,right,-0.6546297120964095,-0.593038915148863,0.07021576714033284,0,0
105,congruent,1,0.493513953052,left,-0.7062041468466924,-0.7274724318446428,0.12571432837136134,0,0
105,incongruent,1,0.625623323944,left,-0.46900680792682997,-0.593038915148863,0.07021576714033284,0,0
105,congruent,1,0.505568037559,left,-0.6820726550010024,-0.7274724318446428,0.12571432837136134,0,0
105,congruent,1,0.509489615023,left,-0.6743458092101097,-0.7274724318446428,0.12571432837136134,0,0
105,incongruent,1,0.522463173709,left,-0.649200778566782,-0.593038915148863,0.07021576714033284,0,0
105,incongruent,1,0.585546403756,left,-0.5352098441642896,-0.593038915148863,0.07021576714033284,0,0
105,congruent,1,0.397476694836,right,-0.9226189759499138,-0.7274724318446428,0.12571432837136134,0,0
105,incongruent,1,0.545662985916,right,-0.6057537357215323,-0.593038915148863,0.07021576714033284,0,0
105,congruent,1,0.422379643192,right,-0.8618507409521725,-0.7274724318446428,0.12571432837136134,0,0
105,incongruent,1,0.504540995305,right,-0.6841061832133183,-0.593038915148863,0.07021576714033284,0,0
106,incongruent,1,1.1851483159,left,0.16986792785214433,0.18886110612616322,0.23960503774050362,0,0
106,incongruent,1,3.1169182579,right,1.1368447758343352,0.18886110612616322,0.23960503774050362,0,0
106,congruent,1,1.07664880236,left,0.07385325619350874,0.08520822087371666,0.22081110254300507,0,0
106,incongruent,1,1.08567477013,right,0.08220170164172934,0.18886110612616322,0.23960503774050362,0,0
106,congruent,1,0.994748474066,right,-0.005265363663709645,0.08520822087371666,0.22081110254300507,0,0
106,congruent,1,1.60048915936,right,0.4703093071214929,0.08520822087371666,0.22081110254300507,0,0
106,incongruent,1,0.934272434397,left,-0.0679871976353902,0.18886110612616322,0.23960503774050362,0,0
106,congruent,1,1.16063624755,left,0.14896834402025655,0.08520822087371666,0.22081110254300507,0,0
106,congruent,1,1.11826862925,left,0.1117816224811237,0.08520822087371666,0.22081110254300507,0,0
106,congruent,1,1.15035005646,right,0.14006629297755424,0.08520822087371666,0.22081110254300507,0,0
106,congruent,1,1.95358540332,right,0.6696663526633433,0.08520822087371666,0.22081110254300507,0,0
106,congruent,1,0.98462166156,left,-0.015497811534410648,0.08520822087371666,0.22081110254300507,0,0
106,incongruent,1,1.2344814361,left,0.21065099210396432,0.18886110612616322,0.23960503774050362,0,0
106,incongruent,1,1.28336108969,left,0.2494824877275644,0.18886110612616322,0.23960503774050362,0,0
106,incongruent,1,1.05038766321,right,0.04915929908789697,0.18886110612616322,0.23960503774050362,0,0
106,incongruent,1,1.08059357608,right,0.0775104976387349,0.18886110612616322,0.23960503774050362,0,0
106,congruent,1,1.03833040816,right,0.03761404638595809,0.08520822087371666,0.22081110254300507,0,0
106,congruent,1,1.2299941733,left,0.2070094322186342,0.08520822087371666,0.22081110254300507,0,0
106,incongruent,1,1.4026039531,left,0.338330475525371,0.18886110612616322,0.23960503774050362,0,0
106,congruent,1,1.22035692639,right,0.19914337857182282,0.08520822087371666,0.22081110254300507,0,0
106,incongruent,1,1.13353666478,right,0.12534253696193876,0.18886110612616322,0.23960503774050362,0,0
106,incongruent,1,1.50749114727,right,0.41044677714424915,0.18886110612616322,0.23960503774050362,0,0
106,incongruent,1,1.17550983406,left,0.16170195481582225,0.18886110612616322,0.23960503774050362,0,0
106,congruent,1,0.99671647047,left,-0.0032889321427545795,0.08520822087371666,0.22081110254300507,0,0
106,incongruent,1,1.08542572667,left,0.08197228484461712,0.18886110612616322,0.23960503774050362,0,0
106,congruent,1,1.14154311646,right,0.13238095803083919,0.08520822087371666,0.22081110254300507,0,0
106,congruent,1,1.13068901238,left,0.12282719237403834,0.08520822087371666,0.22081110254300507,0,0
106,congruent,1,0.896699973499,left,-0.10903395057805557,0.08520822087371666,0.22081110254300507,0,0
106,incongruent,1,1.27858541053,right,0.24575431878171328,0.18886110612616322,0.23960503774050362,0,0
106,incongruent,1,1.3283697985,left,0.2839524750165969,0.18886110612616322,0.23960503774050362,0,0
106,incongruent,1,1.14037427189,right,0.13135651720034242,0.18886110612616322,0.23960503774050362,0,0
106,congruent,1,1.32569228148,right,0.28193479958349554,0.08520822087371666,0.22081110254300507,0,0
106,congruent,1,1.03447019854,right,0.03388941019064048,0.08520822087371666,0.22081110254300507,0,0
106,congruent,1,0.640462400762,right,-0.4455648623161307,0.08520822087371666,0.22081110254300507,0,0
106,congruent,1,1.00059243911,left,5.922636872319889e-4,0.08520822087371666,0.22081110254300507,0,0
106,incongruent,1,1.03609497477,right,0.035458814123859095,0.18886110612616322,0.23960503774050362,0,0
106,congruent,1,0.890557820227,left,-0.1159072482906626,0.08520822087371666,0.22081110254300507,0,0
106,incongruent,1,0.985662604721,right,-0.01444116881978817,0.18886110612616322,0.23960503774050362,0,0
106,incongruent,1,1.03332547566,left,0.03278221859407889,0.18886110612616322,0.23960503774050362,0,0
106,incongruent,1,1.45863354332,left,0.3775000682321319,0.18886110612616322,0.23960503774050362,0,0
106,congruent,1,1.15769071183,right,0.14642725524668354,0.08520822087371666,0.22081110254300507,0,0
106,incongruent,1,1.04864964608,left,0.04750328514331395,0.18886110612616322,0.23960503774050362,0,0
106,congruent,1,0.750649131673,left,-0.2868169378912943,0.08520822087371666,0.22081110254300507,0,0
106,congruent,1,1.05560811159,right,0.05411700995816691,0.08520822087371666,0.22081110254300507,0,0
106,incongruent,1,1.07265710253,left,0.07013884363796907,0.18886110612616322,0.23960503774050362,0,0
106,congruent,1,1.2162732685,left,0.19579148568142735,0.08520822087371666,0.22081110254300507,0,0
106,incongruent,1,1.00256008216,right,0.0025568107318940016,0.18886110612616322,0.23960503774050362,0,0
106,incongruent,1,1.34256216381,right,0.2945798508428283,0.18886110612616322,0.23960503774050362,0,0
109,incongruent,1,0.560528901692,right,-0.5788744736744178,-0.4276382924992402,0.2513826705382659,0,0
109,congruent,1,0.480407983229,left,-0.7331195710355329,-0.5452914994297113,0.15329485038451893,0,0
109,incongruent,1,0.824087101243,right,-0.19347904926709633,-0.4276382924992402,0.2513826705382659,0,0
109,congruent,1,0.494337699853,right,-0.7045363924029787,-0.5452914994297113,0.15329485038451893,0,0
109,incongruent,1,0.656606881889,left,-0.42066979287149014,-0.4276382924992402,0.2513826705382659,0,0
109,incongruent,1,0.570778738311,left,-0.5607536430027869,-0.4276382924992402,0.2513826705382659,0,0
109,congruent,1,0.669595653952,right,-0.4010812503416744,-0.5452914994297113,0.15329485038451893,0,0
109,congruent,1,0.539465271908,left,-0.617176867239994,-0.5452914994297113,0.15329485038451893,0,0
109,congruent,1,0.643676744607,left,-0.4405586282645517,-0.5452914994297113,0.15329485038451893,0,0
109,congruent,1,0.571711257713,left,-0.5591212092618703,-0.5452914994297113,0.15329485038451893,0,0
109,congruent,1,0.694804958465,right,-0.3641241081049584,-0.5452914994297113,0.15329485038451893,0,0
109,congruent,1,0.679740249396,right,-0.3860445399696437,-0.5452914994297113,0.15329485038451893,0,0
109,incongruent,1,1.10462947718,right,0.09950996396991786,-0.4276382924992402,0.2513826705382659,0,0
109,incongruent,1,0.866800701416,right,-0.14294620011859924,-0.4276382924992402,0.2513826705382659,0,0
109,incongruent,1,0.652547211089,left,-0.4268717882433375,-0.4276382924992402,0.2513826705382659,0,0
109,incongruent,1,0.576665937328,left,-0.5504921449083549,-0.4276382924992402,0.2513826705382659,0,0
109,congruent,1,0.713740408043,left,-0.337235956921133,-0.5452914994297113,0.15329485038451893,0,0
109,incongruent,1,0.534653053204,right,-0.6261372411364673,-0.4276382924992402,0.2513826705382659,0,0
109,incongruent,1,0.730695606868,right,-0.31375831242693336,-0.4276382924992402,0.2513826705382659,0,0
109,congruent,1,0.618500746516,right,-0.48045688017214994,-0.5452914994297113,0.15329485038451893,0,0
109,congruent,1,0.586630390607,right,-0.5333603157224754,-0.5452914994297113,0.15329485038451893,0,0
109,congruent,1,0.81270071725,left,-0.20739235867138014,-0.5452914994297113,0.15329485038451893,0,0
109,incongruent,1,0.527570075601,left,-0.6394735777137646,-0.4276382924992402,0.2513826705382659,0,0
109,incongruent,1,0.625786588973,left,-0.4687458781895136,-0.4276382924992402,0.2513826705382659,0,0
109,congruent,1,0.529773791385,left,-0.635305172252278,-0.5452914994297113,0.15329485038451893,0,0
109,congruent,1,0.521637397551,left,-0.6507825731810363,-0.5452914994297113,0.15329485038451893,0,0
109,incongruent,1,0.712837411553,left,-0.3385019188591301,-0.4276382924992402,0.2513826705382659,0,0
109,incongruent,1,0.618267813097,right,-0.4808335608695103,-0.4276382924992402,0.2513826705382659,0,0
109,congruent,1,0.580743097845,right,-0.5434467923010822,-0.5452914994297113,0.15329485038451893,0,0
109,incongruent,1,0.560692816109,left,-0.5785820882959233,-0.4276382924992402,0.2513826705382659,0,0
109,incongruent,1,0.590819222343,right,-0.5262451927286081,-0.4276382924992402,0.2513826705382659,0,0
109,congruent,1,0.578665408502,right,-0.5470308466800108,-0.5452914994297113,0.15329485038451893,0,0
109,congruent,1,0.519570998643,left,-0.6547518105182217,-0.5452914994297113,0.15329485038451893,0,0
109,incongruent,1,0.546729526247,right,-0.6038010664053102,-0.4276382924992402,0.2513826705382659,0,0
109,incongruent,1,0.631797211164,right,-0.45918680473595525,-0.4276382924992402,0.2513826705382659,0,0
109,congruent,1,0.590648755291,right,-0.5265337609444378,-0.5452914994297113,0.15329485038451893,0,0
109,incongruent,1,0.66051633246,left,-0.4147334279068524,-0.4276382924992402,0.2513826705382659,0,0
109,congruent,1,0.645809607326,left,-0.43725054414117925,-0.5452914994297113,0.15329485038451893,0,0
109,congruent,1,0.410715805617,right,-0.8898537741801512,-0.5452914994297113,0.15329485038451893,0,0
109,incongruent,1,0.458629123828,left,-0.7795134046262114,-0.4276382924992402,0.2513826705382659,0,0
109,incongruent,1,0.562588346538,left,-0.5752070967242727,-0.4276382924992402,0.2513826705382659,0,0
109,incongruent,1,0.65351570508,left,-0.4253887139495532,-0.4276382924992402,0.2513826705382659,0,0
109,congruent,1,0.543679451235,left,-0.6093954498520073,-0.5452914994297113,0.15329485038451893,0,0
109,incongruent,1,1.43850587372,right,0.3636049872267115,-0.4276382924992402,0.2513826705382659,0,0
109,incongruent,1,0.536741545019,right,-0.6222385945243047,-0.4276382924992402,0.2513826705382659,0,0
109,congruent,1,0.634612362449,right,-0.4547409193278622,-0.5452914994297113,0.15329485038451893,0,0
109,congruent,1,0.471622496678,left,-0.7515764085771084,-0.5452914994297113,0.15329485038451893,0,0
109,congruent,1,0.536805280568,right,-0.6221198562493532,-0.5452914994297113,0.15329485038451893,0,0
110,incongruent,1,0.957000662534,left,-0.043951195226392174,-0.21838241579652562,0.13574019759667472,0,0
110,congruent,1,0.662611417406,left,-0.4115665580453587,-0.5106419512796833,0.13205185537223818,0,0
110,congruent,1,0.613426066417,right,-0.48869553323095577,-0.5106419512796833,0.13205185537223818,0,0
110,congruent,1,0.808916883931,left,-0.21205910647115406,-0.5106419512796833,0.13205185537223818,0,0
110,congruent,1,0.603349242472,right,-0.505259074999903,-0.5106419512796833,0.13205185537223818,0,0
110,incongruent,1,0.951545984846,right,-0.04966726462129839,-0.21838241579652562,0.13574019759667472,0,0
110,incongruent,1,0.86554322053,right,-0.14439796854740666,-0.21838241579652562,0.13574019759667472,0,0
110,incongruent,1,0.795252650063,left,-0.22909541599377062,-0.21838241579652562,0.13574019759667472,0,0
110,incongruent,1,0.926509541547,right,-0.0763309348240527,-0.21838241579652562,0.13574019759667472,0,0
110,incongruent,1,0.988756637738,left,-0.011307046660607474,-0.21838241579652562,0.13574019759667472,0,0
110,congruent,1,0.706274394412,right,-0.34775145635765065,-0.5106419512796833,0.13205185537223818,0,0
110,congruent,1,0.723602655726,left,-0.32351285531018636,-0.5106419512796833,0.13205185537223818,0,0
110,incongruent,1,0.833652276399,right,-0.18193889833824103,-0.21838241579652562,0.13574019759667472,0,0
110,congruent,1,0.617549487114,right,-0.4819960726158255,-0.5106419512796833,0.13205185537223818,0,0
110,congruent,1,0.64776693782,left,-0.43422431118244503,-0.5106419512796833,0.13205185537223818,0,0
110,incongruent,1,0.810407165708,left,-0.21021848390018083,-0.21838241579652562,0.13574019759667472,0,0
110,congruent,1,0.589530047964,left,-0.5284295883546277,-0.5106419512796833,0.13205185537223818,0,0
110,congruent,1,0.553518651771,right,-0.5914598295312872,-0.5106419512796833,0.13205185537223818,0,0
110,incongruent,0,0.819301097704,left,-0.1993036220281132,-0.21838241579652562,0.13574019759667472,0,0
110,incongruent,1,0.816654331608,right,-0.20253936837901226,-0.21838241579652562,0.13574019759667472,0,0
110,congruent,1,0.678420186838,left,-0.3879884384052977,-0.5106419512796833,0.13205185537223818,0,0
110,incongruent,1,0.689325430895,left,-0.3720417959730344,-0.21838241579652562,0.13574019759667472,0,0
110,incongruent,1,0.872441248521,left,-0.13645996411147018,-0.21838241579652562,0.13574019759667472,0,0
110,congruent,1,0.572601924985,right,-0.557564524491779,-0.5106419512796833,0.13205185537223818,0,0
110,congruent,1,0.630626515378,right,-0.4610414848991528,-0.5106419512796833,0.13205185537223818,0,0
110,incongruent,1,0.689994032683,left,-0.37107232971373594,-0.21838241579652562,0.13574019759667472,0,0
110,congruent,1,0.581594629595,left,-0.5419815866517458,-0.5106419512796833,0.13205185537223818,0,0
110,congruent,1,0.559714983103,left,-0.5803275835610503,-0.5106419512796833,0.13205185537223818,0,0
110,incongruent,1,0.644458822359,right,-0.4393443494756536,-0.21838241579652562,0.13574019759667472,0,0
110,incongruent,1,0.794525533716,left,-0.2300101554273849,-0.21838241579652562,0.13574019759667472,0,0
110,incongruent,1,0.762522834301,right,-0.2711228243246993,-0.21838241579652562,0.13574019759667472,0,0
110,congruent,1,0.604385875668,right,-0.5035424180359676,-0.5106419512796833,0.13205185537223818,0,0
110,incongruent,1,0.85866591289,left,-0.15237535827188464,-0.21838241579652562,0.13574019759667472,0,0
110,congruent,1,0.504666249415,left,-0.6838579604398523,-0.5106419512796833,0.13205185537223818,0,0
110,congruent,1,0.644601059634,left,-0.43912366573928996,-0.5106419512796833,0.13205185537223818,0,0
110,congruent,1,0.497182703255,right,-0.6987977082552133,-0.5106419512796833,0.13205185537223818,0,0
110,incongruent,1,0.727560145355,right,-0.3180586093263071,-0.21838241579652562,0.13574019759667472,0,0
110,incongruent,1,0.987577856207,left,-0.012499943586098253,-0.21838241579652562,0.13574019759667472,0,0
110,congruent,1,0.644123573335,right,-0.439864687224616,-0.5106419512796833,0.13205185537223818,0,0
110,incongruent,1,0.735698111161,right,-0.30693541945104713,-0.21838241579652562,0.13574019759667472,0,0
110,congruent,1,0.464408252204,right,-0.7669912597124883,-0.5106419512796833,0.13205185537223818,0,0
110,congruent,1,0.510634286712,left,-0.6721016265819653,-0.5106419512796833,0.13205185537223818,0,0
110,incongruent,1,0.670429881174,left,-0.39983615865065153,-0.21838241579652562,0.13574019759667472,0,0
110,congruent,1,0.499644536315,right,-0.6938583607586437,-0.5106419512796833,0.13205185537223818,0,0
110,congruent,1,0.604465223554,left,-0.5034111398559418,-0.5106419512796833,0.13205185537223818,0,0
110,incongruent,1,0.898724905795,left,-0.10677829156617082,-0.21838241579652562,0.13574019759667472,0,0
110,incongruent,1,0.611700079835,right,-0.49151318222030294,-0.21838241579652562,0.13574019759667472,0,0
110,incongruent,1,0.752481100342,right,-0.2843793984990986,-0.21838241579652562,0.13574019759667472,0,0
111,incongruent,1,0.768442791194,left,-0.2633891609423016,-0.5091847929263983,0.20123640439787457,0,0
111,congruent,1,0.669890823779,left,-0.4006405294584332,-0.6898618376520208,0.1799628541957328,0,0
111,congruent,1,0.452529924967,left,-0.7929013855050583,-0.6898618376520208,0.1799628541957328,0,0
111,incongruent,1,0.638730160295,right,-0.44827319815012356,-0.5091847929263983,0.20123640439787457,0,0
111,incongruent,1,0.634776776346,right,-0.4544818752051505,-0.5091847929263983,0.20123640439787457,0,0
111,congruent,1,0.468642141939,right,-0.757915825370738,-0.6898618376520208,0.1799628541957328,0,0
111,incongruent,1,0.652761873055,left,-0.42654288228452253,-0.5091847929263983,0.20123640439787457,0,0
111,congruent,1,0.406795766023,right,-0.8994440228682872,-0.6898618376520208,0.1799628541957328,0,0
111,incongruent,1,0.643426553818,right,-0.4409473939408689,-0.5091847929263983,0.20123640439787457,0,0
111,incongruent,1,0.524666653045,left,-0.6449921646354143,-0.5091847929263983,0.20123640439787457,0,0
111,congruent,1,0.533871438684,right,-0.6276002205353335,-0.6898618376520208,0.1799628541957328,0,0
111,congruent,1,0.518817983945,right,-0.6562021626360223,-0.6898618376520208,0.1799628541957328,0,0
111,incongruent,0,0.458766872869,left,-0.7792131001938154,-0.5091847929263983,0.20123640439787457,0,0
111,congruent,1,0.434760870689,left,-0.8329591216003165,-0.6898618376520208,0.1799628541957328,0,0
111,incongruent,1,0.549553515434,left,-0.5986491205556527,-0.5091847929263983,0.20123640439787457,0,0
111,congruent,1,0.6286984259,left,-0.46410358733412777,-0.6898618376520208,0.1799628541957328,0,0
111,incongruent,1,0.616500935662,left,-0.4836954386789708,-0.5091847929263983,0.20123640439787457,0,0
111,incongruent,1,0.719711947031,right,-0.328904220590873,-0.5091847929263983,0.20123640439787457,0,0
111,congruent,1,0.419819036791,left,-0.8679315253369583,-0.6898618376520208,0.1799628541957328,0,0
111,incongruent,1,0.582746895248,left,-0.5400023288402228,-0.5091847929263983,0.20123640439787457,0,0
111,congruent,1,0.466723915335,right,-0.7620173838530901,-0.6898618376520208,0.1799628541957328,0,0
111,congruent,1,0.53366360989,right,-0.6279895825462638,-0.6898618376520208,0.1799628541957328,0,0
111,congruent,1,0.470754188245,left,-0.7534192145221588,-0.6898618376520208,0.1799628541957328,0,0
111,incongruent,1,0.59647514095,right,-0.5167177131658981,-0.5091847929263983,0.20123640439787457,0,0
111,incongruent,1,0.694750020131,left,-0.36420318138363383,-0.5091847929263983,0.20123640439787457,0,0
111,congruent,1,0.694801926851,right,-0.3641284713734944,-0.6898618376520208,0.1799628541957328,0,0
111,congruent,1,0.431710168251,left,-0.840000822723113,-0.6898618376520208,0.1799628541957328,0,0
111,incongruent,1,0.626716925211,right,-0.46726031523729705,-0.5091847929263983,0.20123640439787457,0,0
111,incongruent,1,0.648832442541,right,-0.4325807735146268,-0.5091847929263983,0.20123640439787457,0,0
111,incongruent,1,0.69660220112,left,-0.36154076125046236,-0.5091847929263983,0.20123640439787457,0,0
111,congruent,1,0.593741756016,right,-0.52131080833430965,-0.6898618376520208,0.1799628541957328,0,0
111,congruent,1,0.37173363853,left,-0.98957770663464,-0.6898618376520208,0.1799628541957328,0,0
111,incongruent,1,0.573674047001,right,-0.5556939063250658,-0.5091847929263983,0.20123640439787457,0,0
111,congruent,1,0.43079143205,right,-0.8421312223610058,-0.6898618376520208,0.1799628541957328,0,0
111,incongruent,1,0.627752332545,right,-0.4656095652285264,-0.5091847929263983,0.20123640439787457,0,0
111,congruent,1,0.660725847955,right,-0.41441627863647357,-0.6898618376520208,0.1799628541957328,0,0
111,congruent,1,0.404729814154,left,-0.9045355600485429,-0.6898618376520208,0.1799628541957328,0,0
111,incongruent,0,0.397700034013,right,-0.9220572412442312,-0.5091847929263983,0.20123640439787457,0,0
111,incongruent,1,0.649715720929,left,-0.43122036417584,-0.5091847929263983,0.20123640439787457,0,0
111,congruent,1,0.480621873464,left,-0.7326744438898112,-0.6898618376520208,0.1799628541957328,0,0
111,congruent,1,0.527745433764,left,-0.6391412445620999,-0.6898618376520208,0.1799628541957328,0,0
111,congruent,1,0.516752445522,right,-0.6601913479263779,-0.6898618376520208,0.1799628541957328,0,0
111,congruent,1,0.658443976246,right,-0.4178758392525978,-0.6898618376520208,0.1799628541957328,0,0
111,incongruent,1,0.478750423963,left,-0.7365758529252714,-0.5091847929263983,0.20123640439787457,0,0
111,incongruent,0,0.378799268296,right,-0.9707488493088271,-0.5091847929263983,0.20123640439787457,0,0
111,incongruent,1,0.962598359917,right,-0.038119025919898415,-0.5091847929263983,0.20123640439787457,0,0
111,incongruent,1,0.577517463893,right,-0.5490165965360642,-0.5091847929263983,0.20123640439787457,0,0
111,congruent,1,0.454946342144,left,-0.7875757963392458,-0.6898618376520208,0.1799628541957328,0,0
112,congruent,1,0.638148,right,-0.4491850476177388,-0.6126990460774533,0.16673495522719234,0,0
112,congruent,1,0.5080214,left,-0.6772317063066776,-0.6126990460774533,0.16673495522719234,0,0
112,congruent,1,0.6130016,right,-0.48938773293513943,-0.6126990460774533,0.16673495522719234,0,0
112,incongruent,1,0.5489457,left,-0.5997557494680618,-0.5867341424933196,0.1541594172927918,0,0
112,incongruent,1,0.5668775,right,-0.5676120479791309,-0.5867341424933196,0.1541594172927918,0,0
112,incongruent,1,0.518486,left,-0.6568422526414078,-0.5867341424933196,0.1541594172927918,0,0
112,incongruent,1,0.5750838,right,-0.5532395096732671,-0.5867341424933196,0.1541594172927918,0,0
112,congruent,1,0.6450099,left,-0.4384896134669474,-0.6126990460774533,0.16673495522719234,0,0
112,congruent,1,0.5020923,left,-0.6889713116495884,-0.6126990460774533,0.16673495522719234,0,0
112,congruent,1,0.4660536,right,-0.7634546300117245,-0.6126990460774533,0.16673495522719234,0,0
112,incongruent,1,0.6488589,left,-0.43253999731748916,-0.5867341424933196,0.1541594172927918,0,0
112,incongruent,1,0.7320101,left,-0.31196096730180684,-0.5867341424933196,0.1541594172927918,0,0
112,congruent,1,0.5669353,left,-0.5675100911127945,-0.6126990460774533,0.16673495522719234,0,0
112,incongruent,1,0.5580208,right,-0.5833590413098954,-0.5867341424933196,0.1541594172927918,0,0
112,incongruent,0,0.4348428,left,-0.8327706925170365,-0.5867341424933196,0.1541594172927918,0,0
112,congruent,1,0.5749892,right,-0.5534040209698777,-0.6126990460774533,0.16673495522719234,0,0
112,incongruent,1,0.5440198,right,-0.6087696357297276,-0.5867341424933196,0.1541594172927918,0,0
112,congruent,1,0.5759874,left,-0.5516694935255071,-0.6126990460774533,0.16673495522719234,0,0
112,congruent,1,0.5767539,right,-0.5503396199225278,-0.6126990460774533,0.16673495522719234,0,0
112,incongruent,1,0.5270006,left,-0.6405535919214986,-0.5867341424933196,0.1541594172927918,0,0
112,incongruent,1,0.5920728,left,-0.5241256786857147,-0.5867341424933196,0.1541594172927918,0,0
112,congruent,1,0.5049883,left,-0.6832200182919986,-0.6126990460774533,0.16673495522719234,0,0
112,incongruent,1,0.6655833,right,-0.4070914799341319,-0.5867341424933196,0.1541594172927918,0,0
112,congruent,1,0.6368947,right,-0.4511509431969856,-0.6126990460774533,0.16673495522719234,0,0
112,congruent,1,0.4799966,right,-0.7339762584386207,-0.6126990460774533,0.16673495522719234,0,0
112,congruent,1,0.6187129,left,-0.480113926492845,-0.6126990460774533,0.16673495522719234,0,0
112,congruent,1,0.569766,left,-0.5625295287583281,-0.6126990460774533,0.16673495522719234,0,0
112,incongruent,1,0.6917129,right,-0.3685842938458729,-0.5867341424933196,0.1541594172927918,0,0
112,congruent,1,0.4261136,right,-0.8530493015953359,-0.6126990460774533,0.16673495522719234,0,0
112,incongruent,1,0.4880909,left,-0.7172536199833807,-0.5867341424933196,0.1541594172927918,0,0
112,incongruent,1,0.4498624,right,-0.7988135207551064,-0.5867341424933196,0.1541594172927918,0,0
112,incongruent,0,0.3999363,right,-0.9164499945557827,-0.5867341424933196,0.1541594172927918,0,0
112,congruent,1,0.5777964,right,-0.548533721499007,-0.6126990460774533,0.16673495522719234,0,0
112,incongruent,1,0.6469753,right,-0.4354471614078022,-0.5867341424933196,0.1541594172927918,0,0
112,congruent,1,0.7799505,left,-0.2485248228507298,-0.6126990460774533,0.16673495522719234,0,0
112,incongruent,1,0.5910449,right,-0.5258632915345935,-0.5867341424933196,0.1541594172927918,0,0
112,congruent,1,0.6699424,left,-0.4005635404420241,-0.6126990460774533,0.16673495522719234,0,0
112,congruent,1,0.3889284,right,-0.9443600140017818,-0.6126990460774533,0.16673495522719234,0,0
112,incongruent,1,0.4417951,left,-0.8169090790490245,-0.5867341424933196,0.1541594172927918,0,0
112,incongruent,1,0.6230049,left,-0.4732008950570749,-0.5867341424933196,0.1541594172927918,0,0
112,congruent,1,0.4460348,right,-0.8073583031001841,-0.6126990460774533,0.16673495522719234,0,0
112,congruent,1,0.498992,left,-0.6951652154232616,-0.6126990460774533,0.16673495522719234,0,0
112,incongruent,1,0.5658477,left,-0.5694303182599001,-0.5867341424933196,0.1541594172927918,0,0
112,incongruent,1,0.6377738,right,-0.4497716039579921,-0.5867341424933196,0.1541594172927918,0,0
112,congruent,1,0.4748142,right,-0.7448317093644374,-0.6126990460774533,0.16673495522719234,0,0
112,incongruent,1,0.501806,left,-0.6895416881663369,-0.5867341424933196,0.1541594172927918,0,0
112,congruent,1,0.4396587,left,-0.8217565348848154,-0.6126990460774533,0.16673495522719234,0,0
112,incongruent,1,0.5478612,right,-0.6017333087876341,-0.5867341424933196,0.1541594172927918,0,0
113,congruent,1,0.5491879,left,-0.5993146373776436,-0.3303169838606688,0.2310557446313666,0,0
113,congruent,1,0.4880032,right,-0.7174333157734402,-0.3303169838606688,0.2310557446313666,0,0
113,incongruent,1,0.807874,left,-0.21334917321509972,-0.21211069875756078,0.18243053264190118,0,0
113,incongruent,1,0.786972,left,-0.2395626093425049,-0.21211069875756078,0.18243053264190118,0,0
113,incongruent,1,0.7728534,right,-0.2576658990921989,-0.21211069875756078,0.18243053264190118,0,0
113,congruent,1,0.9657063,right,-0.03489552826540007,-0.3303169838606688,0.2310557446313666,0,0
113,congruent,1,0.7339038,left,-0.3093773216273835,-0.3303169838606688,0.2310557446313666,0,0
113,incongruent,1,0.7089429,right,-0.34398029165935406,-0.21211069875756078,0.18243053264190118,0,0
113,congruent,1,0.6399841,right,-0.44631194668703067,-0.3303169838606688,0.2310557446313666,0,0
113,congruent,1,0.6330777,left,-0.45716211555581443,-0.3303169838606688,0.2310557446313666,0,0
113,congruent,1,0.6140039,right,-0.4877539990636361,-0.3303169838606688,0.2310557446313666,0,0
113,congruent,1,0.8220066,left,-0.19600685476111063,-0.3303169838606688,0.2310557446313666,0,0
113,incongruent,1,1.3147473,left,0.27364447986284623,-0.21211069875756078,0.18243053264190118,0,0
113,incongruent,1,0.9719234,left,-0.028478284211462146,-0.21211069875756078,0.18243053264190118,0,0
113,incongruent,1,0.6488224,right,-0.4325962514994823,-0.21211069875756078,0.18243053264190118,0,0
113,incongruent,1,0.7757767,right,-0.2538905579410775,-0.21211069875756078,0.18243053264190118,0,0
113,incongruent,1,0.6617924,right,-0.4128033673925385,-0.21211069875756078,0.18243053264190118,0,0
113,incongruent,1,0.9218684,right,-0.08135279880161433,-0.21211069875756078,0.18243053264190118,0,0
113,congruent,1,0.8820254,left,-0.12553442520406455,-0.3303169838606688,0.2310557446313666,0,0
113,congruent,1,0.5769299,left,-0.5500345103225398,-0.3303169838606688,0.2310557446313666,0,0
113,incongruent,1,0.9927956,left,-0.0072304770113107404,-0.21211069875756078,0.18243053264190118,0,0
113,incongruent,1,0.8189513,left,-0.1997306596565103,-0.21211069875756078,0.18243053264190118,0,0
113,congruent,1,0.6029085,right,-0.5059898350623588,-0.3303169838606688,0.2310557446313666,0,0
113,congruent,1,0.7840174,right,-0.24332406500045867,-0.3303169838606688,0.2310557446313666,0,0
113,incongruent,1,0.7550671,right,-0.2809486595100022,-0.21211069875756078,0.18243053264190118,0,0
113,incongruent,1,0.7028825,right,-0.3525655419660921,-0.21211069875756078,0.18243053264190118,0,0
113,incongruent,1,0.621903,left,-0.4749711469572523,-0.21211069875756078,0.18243053264190118,0,0
113,congruent,1,0.7030005,left,-0.3523976759341717,-0.3303169838606688,0.2310557446313666,0,0
113,congruent,1,0.6530478,right,-0.4261049517721827,-0.3303169838606688,0.2310557446313666,0,0
113,incongruent,1,0.9006789,left,-0.1046064666908862,-0.21211069875756078,0.18243053264190118,0,0
113,congruent,1,0.7894989,left,-0.23635683857430134,-0.3303169838606688,0.2310557446313666,0,0
113,congruent,1,0.8860938,right,-0.12093246490629891,-0.3303169838606688,0.2310557446313666,0,0
113,incongruent,1,0.7727198,left,-0.2578387799370956,-0.21211069875756078,0.18243053264190118,0,0
113,congruent,1,0.6308526,left,-0.46068304119340364,-0.3303169838606688,0.2310557446313666,0,0
113,congruent,1,1.3449965,right,0.2963914108199333,-0.3303169838606688,0.2310557446313666,0,0
113,incongruent,1,1.0088425,right,0.008803634043650468,-0.21211069875756078,0.18243053264190118,0,0
113,congruent,1,0.6980148,left,-0.3595149730061588,-0.3303169838606688,0.2310557446313666,0,0
113,incongruent,1,0.8478108,right,-0.16509778129123565,-0.21211069875756078,0.18243053264190118,0,0
113,congruent,1,0.8819313,right,-0.125641117165482,-0.3303169838606688,0.2310557446313666,0,0
113,incongruent,1,0.6410249,left,-0.4446869772621138,-0.21211069875756078,0.18243053264190118,0,0
113,incongruent,1,0.6917821,right,-0.36848425734403123,-0.21211069875756078,0.18243053264190118,0,0
113,incongruent,1,0.7078888,left,-0.3454682597708606,-0.21211069875756078,0.18243053264190118,0,0
113,congruent,1,0.9139611,left,-0.08996726860875173,-0.3303169838606688,0.2310557446313666,0,0
113,incongruent,1,1.0499839,left,0.048774830718541884,-0.21211069875756078,0.18243053264190118,0,0
113,congruent,1,0.5177945,right,-0.6581768335828347,-0.3303169838606688,0.2310557446313666,0,0
113,congruent,1,0.795966,right,-0.22819880761784372,-0.3303169838606688,0.2310557446313666,0,0
113,incongruent,1,0.8550704,right,-0.1565714742537746,-0.21211069875756078,0.18243053264190118,0,0
113,congruent,1,0.6108606,left,-0.49288649641367444,-0.3303169838606688,0.2310557446313666,0,0
114,congruent,1,0.5682407,right,-0.5652101824194851,-0.42455064851163565,0.19291710512855412,0,0
114,incongruent,1,0.6467219,left,-0.4358389068691679,-0.37647030126360054,0.15540272201566874,0,0
114,incongruent,1,0.7400134,right,-0.30108698483976326,-0.37647030126360054,0.15540272201566874,0,0
114,congruent,1,0.604028,right,-0.5041347245059091,-0.42455064851163565,0.19291710512855412,0,0
114,congruent,1,0.5639104,left,-0.5728599053527252,-0.42455064851163565,0.19291710512855412,0,0
114,incongruent,1,0.6289117,right,-0.4637644136941384,-0.37647030126360054,0.15540272201566874,0,0
114,congruent,1,1.0659875,left,0.06390159959610263,-0.42455064851163565,0.19291710512855412,0,0
114,incongruent,1,0.589971,left,-0.5276818958327706,-0.37647030126360054,0.15540272201566874,0,0
114,congruent,1,0.6698675,left,-0.40067534734847865,-0.42455064851163565,0.19291710512855412,0,0
114,incongruent,1,0.6920624,right,-0.36807915401944047,-0.37647030126360054,0.15540272201566874,0,0
114,congruent,1,0.5410514,left,-0.6142409954066036,-0.42455064851163565,0.19291710512855412,0,0
114,incongruent,1,0.7061624,right,-0.34791003961274264,-0.37647030126360054,0.15540272201566874,0,0
114,congruent,1,0.6478273,right,-0.43413113049626784,-0.42455064851163565,0.19291710512855412,0,0
114,incongruent,1,0.6170353,left,-0.4828290443956454,-0.37647030126360054,0.15540272201566874,0,0
114,incongruent,1,0.7009454,left,-0.35532528371141675,-0.37647030126360054,0.15540272201566874,0,0
114,congruent,1,0.6510286,right,-0.42920170532689367,-0.42455064851163565,0.19291710512855412,0,0
114,incongruent,1,0.6449166,right,-0.4386342728722124,-0.37647030126360054,0.15540272201566874,0,0
114,incongruent,1,0.7569437,left,-0.2784664008335791,-0.37647030126360054,0.15540272201566874,0,0
114,congruent,1,0.6030104,right,-0.5058208353058371,-0.42455064851163565,0.19291710512855412,0,0
114,congruent,1,0.5928969,right,-0.52273475682018,-0.42455064851163565,0.19291710512855412,0,0
114,congruent,1,0.5520902,left,-0.5940438402572134,-0.42455064851163565,0.19291710512855412,0,0
114,incongruent,1,0.7409241,left,-0.2998570880820714,-0.37647030126360054,0.15540272201566874,0,0
114,incongruent,1,0.8479767,right,-0.1649021199828119,-0.37647030126360054,0.15540272201566874,0,0
114,congruent,1,0.6548398,left,-0.42336465341416024,-0.42455064851163565,0.19291710512855412,0,0
114,incongruent,1,0.6031856,right,-0.5055303352523928,-0.37647030126360054,0.15540272201566874,0,0
114,incongruent,1,0.5969309,right,-0.5159539176821847,-0.37647030126360054,0.15540272201566874,0,0
114,congruent,1,1.1309959,left,0.12309857201689106,-0.42455064851163565,0.19291710512855412,0,0
114,congruent,1,0.6409786,left,-0.4447592079541832,-0.42455064851163565,0.19291710512855412,0,0
114,incongruent,1,0.6630173,left,-0.4109541956223755,-0.37647030126360054,0.15540272201566874,0,0
114,incongruent,1,0.684903,left,-0.37847805658638123,-0.37647030126360054,0.15540272201566874,0,0
114,congruent,1,0.5621368,right,-0.5760100423392971,-0.42455064851163565,0.19291710512855412,0,0
114,congruent,1,0.6099345,right,-0.49440370462928845,-0.42455064851163565,0.19291710512855412,0,0
114,incongruent,1,0.6460182,left,-0.4369276022217843,-0.37647030126360054,0.15540272201566874,0,0
114,congruent,1,0.735833,left,-0.30675208817336685,-0.42455064851163565,0.19291710512855412,0,0
114,congruent,1,0.5486561,left,-0.6002834454079194,-0.42455064851163565,0.19291710512855412,0,0
114,congruent,1,0.5768591,right,-0.5501572364017256,-0.42455064851163565,0.19291710512855412,0,0
114,incongruent,0,1.2489903,left,0.22233546490031306,-0.37647030126360054,0.15540272201566874,0,0
114,congruent,1,0.6589202,right,-0.4171528443764181,-0.42455064851163565,0.19291710512855412,0,0
114,incongruent,1,0.6659716,right,-0.4065082519936139,-0.37647030126360054,0.15540272201566874,0,0
114,incongruent,1,0.6830036,left,-0.38125514856140186,-0.37647030126360054,0.15540272201566874,0,0
114,incongruent,1,0.6630008,left,-0.41097908216050183,-0.37647030126360054,0.15540272201566874,0,0
114,congruent,1,0.6670907,right,-0.4048292603022331,-0.42455064851163565,0.19291710512855412,0,0
114,congruent,1,0.8690245,left,-0.1403839607885077,-0.42455064851163565,0.19291710512855412,0,0
114,congruent,1,0.7088148,right,-0.3441609995480838,-0.42455064851163565,0.19291710512855412,0,0
114,incongruent,1,0.57589,right,-0.5518386087459848,-0.37647030126360054,0.15540272201566874,0,0
114,incongruent,1,0.7090321,left,-0.343854478439632,-0.37647030126360054,0.15540272201566874,0,0
114,incongruent,1,0.6370116,right,-0.4509674132147128,-0.37647030126360054,0.15540272201566874,0,0
114,congruent,1,0.5880726,left,-0.5309048693174726,-0.42455064851163565,0.19291710512855412,0,0
116,incongruent,1,0.6835078,left,-0.3805172110324794,-0.40356225529562245,0.14059022386785983,0,0
116,incongruent,1,0.6250271,right,-0.46996027018575326,-0.40356225529562245,0.14059022386785983,0,0
116,congruent,1,0.6760204,right,-0.39153202587971214,-0.6388802568797713,0.1595262267757717,0,0
116,congruent,1,0.4466354,left,-0.806012677155404,-0.6388802568797713,0.1595262267757717,0,0
116,congruent,1,0.588049,left,-0.530945001222206,-0.6388802568797713,0.1595262267757717,0,0
116,congruent,1,0.5427279,right,-0.6111471896156332,-0.6388802568797713,0.1595262267757717,0,0
116,incongruent,1,0.8059968,right,-0.21567550670671523,-0.40356225529562245,0.14059022386785983,0,0
116,incongruent,1,0.5957979,left,-0.5178537633818758,-0.40356225529562245,0.14059022386785983,0,0
116,incongruent,1,0.5978418,right,-0.5144291085256145,-0.40356225529562245,0.14059022386785983,0,0
116,congruent,1,0.684986,right,-0.37835687888497405,-0.6388802568797713,0.1595262267757717,0,0
116,congruent,1,0.565873,left,-0.5693856075817191,-0.6388802568797713,0.1595262267757717,0,0
116,congruent,1,0.5520402,right,-0.594134409269776,-0.6388802568797713,0.1595262267757717,0,0
116,incongruent,1,0.6630194,left,-0.41095102828922403,-0.40356225529562245,0.14059022386785983,0,0
116,incongruent,1,0.8809337,left,-0.126772911269387,-0.40356225529562245,0.14059022386785983,0,0
116,congruent,1,0.4960378,left,-0.7011031454836002,-0.6388802568797713,0.1595262267757717,0,0
116,incongruent,1,0.6380352,right,-0.4493618247454957,-0.40356225529562245,0.14059022386785983,0,0
116,incongruent,1,0.7078881,right,-0.3454692486272263,-0.40356225529562245,0.14059022386785983,0,0
116,congruent,1,0.4098216,left,-0.8920333359280289,-0.6388802568797713,0.1595262267757717,0,0
116,congruent,1,0.451024,right,-0.7962347258177255,-0.6388802568797713,0.1595262267757717,0,0
116,incongruent,1,0.6860015,left,-0.37687546466972105,-0.40356225529562245,0.14059022386785983,0,0
116,congruent,1,0.74592,left,-0.2931369231347447,-0.6388802568797713,0.1595262267757717,0,0
116,incongruent,1,0.6187741,right,-0.4800150163627994,-0.40356225529562245,0.14059022386785983,0,0
116,congruent,1,0.513005,right,-0.6674696872701712,-0.6388802568797713,0.1595262267757717,0,0
116,incongruent,1,0.5376502,left,-0.6205471161564586,-0.40356225529562245,0.14059022386785983,0,0
116,incongruent,1,0.5447677,right,-0.6073958137164674,-0.40356225529562245,0.14059022386785983,0,0
116,congruent,1,0.4549429,right,-0.7875833624117755,-0.6388802568797713,0.1595262267757717,0,0
116,incongruent,1,0.5479673,left,-0.6015396653473849,-0.40356225529562245,0.14059022386785983,0,0
116,incongruent,1,0.7668481,left,-0.26546654155680127,-0.40356225529562245,0.14059022386785983,0,0
116,congruent,1,0.5319435,left,-0.6312179982879501,-0.6388802568797713,0.1595262267757717,0,0
116,congruent,1,0.4669303,right,-0.7615752829875411,-0.6388802568797713,0.1595262267757717,0,0
116,incongruent,0,0.6666706,left,-0.4054592081255693,-0.40356225529562245,0.14059022386785983,0,0
116,congruent,1,0.582067,left,-0.5411697176016155,-0.6388802568797713,0.1595262267757717,0,0
116,congruent,1,0.5850829,right,-0.5360017323884,-0.6388802568797713,0.1595262267757717,0,0
116,congruent,1,0.5388835,left,-0.618255872436828,-0.6388802568797713,0.1595262267757717,0,0
116,incongruent,1,0.8578516,left,-0.15332415482650533,-0.40356225529562245,0.14059022386785983,0,0
116,incongruent,1,0.7638946,right,-0.26932545744789593,-0.40356225529562245,0.14059022386785983,0,0
116,incongruent,1,0.5618251,left,-0.5765646874887292,-0.40356225529562245,0.14059022386785983,0,0
116,congruent,1,0.6017539,right,-0.50790672124315706,-0.6388802568797713,0.1595262267757717,0,0
116,congruent,1,0.5519372,left,-0.5943210072930667,-0.6388802568797713,0.1595262267757717,0,0
116,incongruent,1,0.7759361,right,-0.2536851075503084,-0.40356225529562245,0.14059022386785983,0,0
116,incongruent,1,0.6279966,right,-0.465220526541333,-0.40356225529562245,0.14059022386785983,0,0
116,incongruent,1,0.7480139,right,-0.290333718292619,-0.40356225529562245,0.14059022386785983,0,0
116,congruent,1,0.4329628,right,-0.8371034669104999,-0.6388802568797713,0.1595262267757717,0,0
116,congruent,1,0.40809,right,-0.8962675406686887,-0.6388802568797713,0.1595262267757717,0,0
116,congruent,1,0.5299157,left,-0.6350373416905862,-0.6388802568797713,0.1595262267757717,0,0
116,congruent,1,0.4699192,left,-0.755194513950709,-0.6388802568797713,0.1595262267757717,0,0
116,incongruent,1,0.6507203,left,-0.42967537579554427,-0.40356225529562245,0.14059022386785983,0,0
116,incongruent,1,0.6318676,left,-0.45907540045303,-0.40356225529562245,0.14059022386785983,0,0
117,incongruent,1,0.5977507,right,-0.514581501586254,-0.5643371029578883,0.16251847591244392,0,0
117,incongruent,1,0.6323164,left,-0.4583653771987338,-0.5643371029578883,0.16251847591244392,0,0
117,congruent,1,0.6593815,right,-0.41645300454638856,-0.6852753843264292,0.19177226520261165,0,0
117,congruent,1,0.4174395,left,-0.8736156553713621,-0.6852753843264292,0.19177226520261165,0,0
117,incongruent,1,0.6893589,right,-0.3719932437348511,-0.5643371029578883,0.16251847591244392,0,0
117,incongruent,1,0.6914395,left,-0.36897962266655915,-0.5643371029578883,0.16251847591244392,0,0
117,congruent,1,0.5214108,left,-0.6512170642335052,-0.6852753843264292,0.19177226520261165,0,0
117,congruent,1,0.6233497,right,-0.47264760146182316,-0.6852753843264292,0.19177226520261165,0,0
117,congruent,1,0.5684583,left,-0.5648273194053398,-0.6852753843264292,0.19177226520261165,0,0
117,congruent,1,0.5984253,left,-0.5134535738038539,-0.6852753843264292,0.19177226520261165,0,0
117,incongruent,1,0.5473971,right,-0.602580780160874,-0.5643371029578883,0.16251847591244392,0,0
117,incongruent,1,0.5444729,left,-0.6079371082792995,-0.5643371029578883,0.16251847591244392,0,0
117,congruent,1,0.5753678,right,-0.5527457905011283,-0.6852753843264292,0.19177226520261165,0,0
117,congruent,1,0.5622623,right,-0.5757868119924903,-0.6852753843264292,0.19177226520261165,0,0
117,incongruent,1,0.5782356,left,-0.5477738809044019,-0.5643371029578883,0.16251847591244392,0,0
117,incongruent,1,0.5253975,right,-0.6436001600214244,-0.5643371029578883,0.16251847591244392,0,0
117,incongruent,1,0.4924438,left,-0.708374936556353,-0.5643371029578883,0.16251847591244392,0,0
117,incongruent,1,0.5283927,right,-0.6379155217208446,-0.5643371029578883,0.16251847591244392,0,0
117,congruent,1,0.5244572,right,-0.645391456000633,-0.6852753843264292,0.19177226520261165,0,0
117,congruent,1,0.4104133,left,-0.8905905782432786,-0.6852753843264292,0.19177226520261165,0,0
117,congruent,1,0.6883838,left,-0.37340874775140426,-0.6852753843264292,0.19177226520261165,0,0
117,incongruent,1,0.6035001,right,-0.5050090727444818,-0.5643371029578883,0.16251847591244392,0,0
117,incongruent,1,0.4513241,left,-0.7955695722898033,-0.5643371029578883,0.16251847591244392,0,0
117,congruent,1,0.3784344,right,-0.9717125368454858,-0.6852753843264292,0.19177226520261165,0,0
117,incongruent,1,0.5253923,left,-0.6436100573386614,-0.5643371029578883,0.16251847591244392,0,0
117,congruent,1,0.6744329,right,-0.393883089380008,-0.6852753843264292,0.19177226520261165,0,0
117,incongruent,1,0.5084113,left,-0.6764645133206114,-0.5643371029578883,0.16251847591244392,0,0
117,congruent,1,0.5433952,left,-0.6099184153008945,-0.6852753843264292,0.19177226520261165,0,0
117,congruent,1,0.3714587,right,-0.9903175919329366,-0.6852753843264292,0.19177226520261165,0,0
117,incongruent,1,0.7573102,right,-0.2779823340503843,-0.5643371029578883,0.16251847591244392,0,0
117,congruent,1,0.4114572,left,-0.8880502739949332,-0.6852753843264292,0.19177226520261165,0,0
117,incongruent,1,0.5724789,right,-0.557779400128134,-0.5643371029578883,0.16251847591244392,0,0
117,congruent,1,0.4434111,left,-0.8132579482837677,-0.6852753843264292,0.19177226520261165,0,0
117,congruent,1,0.4264447,right,-0.8522725804804374,-0.6852753843264292,0.19177226520261165,0,0
117,congruent,1,0.3843682,left,-0.9561543316347539,-0.6852753843264292,0.19177226520261165,0,0
117,congruent,1,0.5175139,right,-0.6587188942999521,-0.6852753843264292,0.19177226520261165,0,0
117,incongruent,0,0.3554543,left,-1.034358589338419,-0.5643371029578883,0.16251847591244392,0,0
117,incongruent,1,0.6303875,left,-0.4614205693152616,-0.5643371029578883,0.16251847591244392,0,0
117,incongruent,1,0.6274545,right,-0.46608412056533166,-0.5643371029578883,0.16251847591244392,0,0
117,incongruent,1,0.4962406,left,-0.7006943892256313,-0.5643371029578883,0.16251847591244392,0,0
117,congruent,1,0.4523944,right,-0.7932009132429566,-0.6852753843264292,0.19177226520261165,0,0
117,congruent,1,0.4413198,left,-0.8179854962760313,-0.6852753843264292,0.19177226520261165,0,0
117,incongruent,1,0.6615416,left,-0.41318241002728184,-0.5643371029578883,0.16251847591244392,0,0
117,incongruent,1,0.6873597,left,-0.37489754299435574,-0.5643371029578883,0.16251847591244392,0,0
117,incongruent,1,0.5844676,right,-0.5370539315995803,-0.5643371029578883,0.16251847591244392,0,0
117,congruent,1,0.5362197,left,-0.6232113138327966,-0.6852753843264292,0.19177226520261165,0,0
117,incongruent,1,0.5284105,right,-0.6378818352217848,-0.5643371029578883,0.16251847591244392,0,0
117,congruent,1,0.5782273,right,-0.5477882350181398,-0.6852753843264292,0.19177226520261165,0,0
