subject_id,block_name,trial_location,trial_similarity,trial_corr_resp,resp_corr,resp_rt,resp_value,mean_rt,sd_rt,exclude_thresh,exclude_trial,exclude_part
118,nb1TestingBlock,11,0,left,1,0.7804508,left,0.8773816466666666,0.2701237972446334,3,0,0
118,nb1TestingBlock,7,4,right,1,0.6166586,right,0.8773816466666666,0.2701237972446334,3,0,0
118,nb1TestingBlock,8,1,right,1,1.1834512,right,0.8773816466666666,0.2701237972446334,3,0,0
118,nb1TestingBlock,12,4,right,1,0.7078707,right,0.8773816466666666,0.2701237972446334,3,0,0
118,nb1TestingBlock,12,0,left,1,0.9696104,left,0.8773816466666666,0.2701237972446334,3,0,0
118,nb1TestingBlock,0,3,right,1,0.7329941,right,0.8773816466666666,0.2701237972446334,3,0,0
118,nb1TestingBlock,0,0,left,1,0.7910617,left,0.8773816466666666,0.2701237972446334,3,0,0
118,nb1TestingBlock,1,1,right,1,0.8028934,right,0.8773816466666666,0.2701237972446334,3,0,0
118,nb1TestingBlock,3,2,right,1,0.813512,right,0.8773816466666666,0.2701237972446334,3,0,0
118,nb1TestingBlock,2,1,right,1,1.0641768,right,0.8773816466666666,0.2701237972446334,3,0,0
118,nb1TestingBlock,6,4,right,1,0.7902386,right,0.8773816466666666,0.2701237972446334,3,0,0
118,nb1TestingBlock,6,0,left,1,0.802274,left,0.8773816466666666,0.2701237972446334,3,0,0
118,nb1TestingBlock,6,0,left,1,0.6703442,left,0.8773816466666666,0.2701237972446334,3,0,0
118,nb1TestingBlock,10,4,right,1,0.8594336,right,0.8773816466666666,0.2701237972446334,3,0,0
118,nb1TestingBlock,8,2,right,1,0.895731,right,0.8773816466666666,0.2701237972446334,3,0,0
118,nb1TestingBlock,8,0,left,1,0.5676334,left,0.8773816466666666,0.2701237972446334,3,0,0
118,nb1TestingBlock,6,2,right,1,0.7334715,right,0.8773816466666666,0.2701237972446334,3,0,0
118,nb1TestingBlock,9,3,right,1,1.1594074,right,0.8773816466666666,0.2701237972446334,3,0,0
118,nb1TestingBlock,9,0,left,1,1.8938934,left,0.8773816466666666,0.2701237972446334,3,1,0
118,nb1TestingBlock,5,4,right,1,0.7899137,right,0.8773816466666666,0.2701237972446334,3,0,0
118,nb1TestingBlock,4,1,right,1,1.0114407,right,0.8773816466666666,0.2701237972446334,3,0,0
118,nb1TestingBlock,4,0,left,1,0.8065311,left,0.8773816466666666,0.2701237972446334,3,0,0
118,nb1TestingBlock,2,2,right,1,1.4524174,right,0.8773816466666666,0.2701237972446334,3,0,0
118,nb1TestingBlock,14,3,right,1,0.8058048,right,0.8773816466666666,0.2701237972446334,3,0,0
118,nb1TestingBlock,11,3,right,1,0.7484437,right,0.8773816466666666,0.2701237972446334,3,0,0
118,nb1TestingBlock,13,2,right,1,0.7542231,right,0.8773816466666666,0.2701237972446334,3,0,0
118,nb1TestingBlock,13,0,left,1,0.8124309,left,0.8773816466666666,0.2701237972446334,3,0,0
118,nb1TestingBlock,14,1,right,1,1.0152148,right,0.8773816466666666,0.2701237972446334,3,0,0
118,nb1TestingBlock,2,3,right,1,0.7429465,right,0.8773816466666666,0.2701237972446334,3,0,0
118,nb1TestingBlock,2,0,left,1,0.5469759,left,0.8773816466666666,0.2701237972446334,3,0,0
118,nb2TestingBlock,3,0,left,1,0.7754211,left,0.98953403,0.3075140757638344,9,0,0
118,nb2TestingBlock,9,3,right,1,1.203476,right,0.98953403,0.3075140757638344,9,0,0
118,nb2TestingBlock,2,1,right,1,1.3691798,right,0.98953403,0.3075140757638344,9,0,0
118,nb2TestingBlock,9,0,left,1,0.6817538,left,0.98953403,0.3075140757638344,9,0,0
118,nb2TestingBlock,4,2,right,1,1.4974161,right,0.98953403,0.3075140757638344,9,0,0
118,nb2TestingBlock,10,1,right,0,0.55314700000000006,left,0.98953403,0.3075140757638344,9,0,0
118,nb2TestingBlock,6,2,right,0,0.9672685,left,0.98953403,0.3075140757638344,9,0,0
118,nb2TestingBlock,6,4,right,0,1.6170605,left,0.98953403,0.3075140757638344,9,0,0
118,nb2TestingBlock,7,1,right,1,0.9206393,right,0.98953403,0.3075140757638344,9,0,0
118,nb2TestingBlock,6,0,left,1,0.8896212,left,0.98953403,0.3075140757638344,9,0,0
118,nb2TestingBlock,5,2,right,1,1.5537644,right,0.98953403,0.3075140757638344,9,0,0
118,nb2TestingBlock,10,4,right,1,0.8728724,right,0.98953403,0.3075140757638344,9,0,0
118,nb2TestingBlock,2,3,right,1,1.2703397,right,0.98953403,0.3075140757638344,9,0,0
118,nb2TestingBlock,13,3,right,1,1.0164622,right,0.98953403,0.3075140757638344,9,0,0
118,nb2TestingBlock,3,1,right,0,1.0490206,left,0.98953403,0.3075140757638344,9,0,0
118,nb2TestingBlock,1,3,right,1,1.0180351,right,0.98953403,0.3075140757638344,9,0,0
118,nb2TestingBlock,3,0,left,1,0.776694,left,0.98953403,0.3075140757638344,9,0,0
118,nb2TestingBlock,1,0,left,0,1.0586981,right,0.98953403,0.3075140757638344,9,0,0
118,nb2TestingBlock,4,1,right,0,0.7607101,left,0.98953403,0.3075140757638344,9,0,0
118,nb2TestingBlock,1,0,left,1,1.1457434,left,0.98953403,0.3075140757638344,9,0,0
118,nb2TestingBlock,4,0,left,1,0.808924,left,0.98953403,0.3075140757638344,9,0,0
118,nb2TestingBlock,5,4,right,1,0.6889534,right,0.98953403,0.3075140757638344,9,0,0
118,nb2TestingBlock,0,4,right,0,0.7768405,left,0.98953403,0.3075140757638344,9,0,0
118,nb2TestingBlock,5,0,left,1,0.9635003,left,0.98953403,0.3075140757638344,9,0,0
118,nb2TestingBlock,3,3,right,1,1.0568656,right,0.98953403,0.3075140757638344,9,0,0
118,nb2TestingBlock,1,4,right,1,2.0575559,right,0.98953403,0.3075140757638344,9,1,0
118,nb2TestingBlock,1,2,right,0,0.7283589,left,0.98953403,0.3075140757638344,9,0,0
118,nb2TestingBlock,12,4,right,1,1.2657031,right,0.98953403,0.3075140757638344,9,0,0
118,nb2TestingBlock,14,2,right,0,0.8420176,left,0.98953403,0.3075140757638344,9,0,0
118,nb2TestingBlock,11,1,right,0,0.8391268,left,0.98953403,0.3075140757638344,9,0,0
118,nb2TestingBlock,14,0,left,1,0.8780577,left,0.98953403,0.3075140757638344,9,0,0
118,nb2TestingBlock,14,3,right,0,0.9349843,left,0.98953403,0.3075140757638344,9,0,0
118,nb2TestingBlock,12,2,right,0,1.4752158,left,0.98953403,0.3075140757638344,9,0,0
118,nb2TestingBlock,0,1,right,1,0.7921892,right,0.98953403,0.3075140757638344,9,0,0
118,nb2TestingBlock,8,4,right,1,1.1582905,right,0.98953403,0.3075140757638344,9,0,0
118,nb2TestingBlock,0,0,left,1,0.5368918,left,0.98953403,0.3075140757638344,9,0,0
118,nb2TestingBlock,11,3,right,1,1.0270299,right,0.98953403,0.3075140757638344,9,0,0
118,nb2TestingBlock,13,2,right,1,0.8250437,right,0.98953403,0.3075140757638344,9,0,0
118,nb2TestingBlock,11,0,left,1,1.172542,left,0.98953403,0.3075140757638344,9,0,0
118,nb2TestingBlock,11,2,right,0,0.7452276,left,0.98953403,0.3075140757638344,9,0,0
118,nb2TestingBlock,11,0,left,1,0.9000846,left,0.98953403,0.3075140757638344,9,0,0
118,nb2TestingBlock,8,3,right,1,0.9325337,right,0.98953403,0.3075140757638344,9,0,0
118,nb2TestingBlock,9,2,right,1,1.0742438,right,0.98953403,0.3075140757638344,9,0,0
118,nb2TestingBlock,9,1,right,0,0.8894551,left,0.98953403,0.3075140757638344,9,0,0
118,nb2TestingBlock,7,2,right,1,1.0885485,right,0.98953403,0.3075140757638344,9,0,0
118,nb2TestingBlock,9,0,left,1,2.0734911,left,0.98953403,0.3075140757638344,9,1,0
118,nb2TestingBlock,7,0,left,0,0.8891063,right,0.98953403,0.3075140757638344,9,0,0
118,nb2TestingBlock,8,1,right,1,0.9131158,right,0.98953403,0.3075140757638344,9,0,0
118,nb2TestingBlock,3,4,right,0,0.7190492,left,0.98953403,0.3075140757638344,9,0,0
118,nb2TestingBlock,8,0,left,0,0.997799,right,0.98953403,0.3075140757638344,9,0,0
118,nb2TestingBlock,6,3,right,1,0.7832071,right,0.98953403,0.3075140757638344,9,0,0
118,nb2TestingBlock,10,2,right,1,0.9406935,right,0.98953403,0.3075140757638344,9,0,0
118,nb2TestingBlock,6,0,left,1,0.6681995,left,0.98953403,0.3075140757638344,9,0,0
118,nb2TestingBlock,10,0,left,1,1.093163,left,0.98953403,0.3075140757638344,9,0,0
118,nb2TestingBlock,5,1,right,1,0.9540317,right,0.98953403,0.3075140757638344,9,0,0
118,nb2TestingBlock,10,0,left,1,0.9027772,left,0.98953403,0.3075140757638344,9,0,0
118,nb2TestingBlock,5,0,left,1,0.9648033,left,0.98953403,0.3075140757638344,9,0,0
118,nb2TestingBlock,7,3,right,1,1.1045119,right,0.98953403,0.3075140757638344,9,0,0
118,nb2TestingBlock,3,2,right,1,1.0164149,right,0.98953403,0.3075140757638344,9,0,0
118,nb2TestingBlock,10,3,right,1,1.2092458,right,0.98953403,0.3075140757638344,9,0,0
118,nb2TestingBlock,7,4,right,1,1.7218819,right,0.98953403,0.3075140757638344,9,0,0
118,nb2TestingBlock,14,4,right,0,1.1936008,left,0.98953403,0.3075140757638344,9,0,0
118,nb2TestingBlock,6,1,right,1,0.5367167,right,0.98953403,0.3075140757638344,9,0,0
118,nb2TestingBlock,14,0,left,1,0.706695,left,0.98953403,0.3075140757638344,9,0,0
118,nb2TestingBlock,2,4,right,1,1.0531334,right,0.98953403,0.3075140757638344,9,0,0
118,nb2TestingBlock,13,1,right,0,0.8246185,left,0.98953403,0.3075140757638344,9,0,0
118,nb2TestingBlock,1,1,right,1,0.6774173,right,0.98953403,0.3075140757638344,9,0,0
118,nb2TestingBlock,0,2,right,1,1.0544154,right,0.98953403,0.3075140757638344,9,0,0
118,nb2TestingBlock,4,3,right,1,0.8412685,right,0.98953403,0.3075140757638344,9,0,0
118,nb2TestingBlock,4,4,right,0,0.7927574,left,0.98953403,0.3075140757638344,9,0,0
118,nb2TestingBlock,8,4,right,1,1.9429349,right,0.98953403,0.3075140757638344,9,1,0
118,nb2TestingBlock,4,0,left,1,0.8251671,left,0.98953403,0.3075140757638344,9,0,0
118,nb2TestingBlock,8,0,left,0,0.9486889,right,0.98953403,0.3075140757638344,9,0,0
118,nb2TestingBlock,2,2,right,1,0.9888638,right,0.98953403,0.3075140757638344,9,0,0
118,nb2TestingBlock,5,3,right,0,0.8688691,left,0.98953403,0.3075140757638344,9,0,0
118,nb2TestingBlock,2,0,left,1,0.9084321,left,0.98953403,0.3075140757638344,9,0,0
118,nb2TestingBlock,2,3,right,0,1.4603087,left,0.98953403,0.3075140757638344,9,0,0
118,nb2TestingBlock,13,4,right,1,0.8256742,right,0.98953403,0.3075140757638344,9,0,0
118,nb2TestingBlock,2,0,left,1,1.237062,left,0.98953403,0.3075140757638344,9,0,0
118,nb2TestingBlock,13,0,left,0,1.0171622,right,0.98953403,0.3075140757638344,9,0,0
118,nb2TestingBlock,14,3,right,1,0.76056,right,0.98953403,0.3075140757638344,9,0,0
118,nb2TestingBlock,13,0,left,1,0.7766313,left,0.98953403,0.3075140757638344,9,0,0
118,nb2TestingBlock,12,2,right,1,1.1227024,right,0.98953403,0.3075140757638344,9,0,0
118,nb2TestingBlock,12,1,right,0,0.5850165,left,0.98953403,0.3075140757638344,9,0,0
118,nb2TestingBlock,1,4,right,1,0.7063263,right,0.98953403,0.3075140757638344,9,0,0
118,nb2TestingBlock,12,0,left,1,0.6694896,left,0.98953403,0.3075140757638344,9,0,0
118,nb2TestingBlock,0,1,right,1,1.0929487,right,0.98953403,0.3075140757638344,9,0,0
118,nb2TestingBlock,12,0,left,1,0.6161464,left,0.98953403,0.3075140757638344,9,0,0
118,nb2TestingBlock,0,0,left,1,0.8351239,left,0.98953403,0.3075140757638344,9,0,0
118,nb2TestingBlock,12,0,left,1,0.7823328,left,0.98953403,0.3075140757638344,9,0,0
119,nb1TestingBlock,11,0,left,1,0.5092691,left,0.83713722,0.8298714378149336,3,0,0
119,nb1TestingBlock,7,4,right,1,0.5933482,right,0.83713722,0.8298714378149336,3,0,0
119,nb1TestingBlock,8,1,right,1,0.6202984,right,0.83713722,0.8298714378149336,3,0,0
119,nb1TestingBlock,12,4,right,1,1.1584882,right,0.83713722,0.8298714378149336,3,0,0
119,nb1TestingBlock,12,0,left,1,0.8535205,left,0.83713722,0.8298714378149336,3,0,0
119,nb1TestingBlock,0,3,right,1,0.9271625,right,0.83713722,0.8298714378149336,3,0,0
119,nb1TestingBlock,0,0,left,1,0.7419634,left,0.83713722,0.8298714378149336,3,0,0
119,nb1TestingBlock,1,1,right,1,0.6255165,right,0.83713722,0.8298714378149336,3,0,0
119,nb1TestingBlock,3,2,right,1,0.7777941,right,0.83713722,0.8298714378149336,3,0,0
119,nb1TestingBlock,2,1,right,1,0.9429196,right,0.83713722,0.8298714378149336,3,0,0
119,nb1TestingBlock,6,4,right,1,0.7458586,right,0.83713722,0.8298714378149336,3,0,0
119,nb1TestingBlock,6,0,left,1,0.7364522,left,0.83713722,0.8298714378149336,3,0,0
119,nb1TestingBlock,6,0,left,1,0.5847205,left,0.83713722,0.8298714378149336,3,0,0
119,nb1TestingBlock,10,4,right,1,0.6432021,right,0.83713722,0.8298714378149336,3,0,0
119,nb1TestingBlock,8,2,right,1,0.5901154,right,0.83713722,0.8298714378149336,3,0,0
119,nb1TestingBlock,8,0,left,1,0.4437945,left,0.83713722,0.8298714378149336,3,0,0
119,nb1TestingBlock,6,2,right,1,0.5980004,right,0.83713722,0.8298714378149336,3,0,0
119,nb1TestingBlock,9,3,right,1,0.5868339,right,0.83713722,0.8298714378149336,3,0,0
119,nb1TestingBlock,9,0,left,1,0.5291056,left,0.83713722,0.8298714378149336,3,0,0
119,nb1TestingBlock,5,4,right,1,0.5808664,right,0.83713722,0.8298714378149336,3,0,0
119,nb1TestingBlock,4,1,right,1,0.5770772,right,0.83713722,0.8298714378149336,3,0,0
119,nb1TestingBlock,4,0,left,1,5.1443024,left,0.83713722,0.8298714378149336,3,1,0
119,nb1TestingBlock,2,2,right,1,1.0461667,right,0.83713722,0.8298714378149336,3,0,0
119,nb1TestingBlock,14,3,right,1,0.6614499,right,0.83713722,0.8298714378149336,3,0,0
119,nb1TestingBlock,11,3,right,1,0.8326385,right,0.83713722,0.8298714378149336,3,0,0
119,nb1TestingBlock,13,2,right,1,0.7156326,right,0.83713722,0.8298714378149336,3,0,0
119,nb1TestingBlock,13,0,left,1,0.5776418,left,0.83713722,0.8298714378149336,3,0,0
119,nb1TestingBlock,14,1,right,1,0.6311644,right,0.83713722,0.8298714378149336,3,0,0
119,nb1TestingBlock,2,3,right,1,0.5633923,right,0.83713722,0.8298714378149336,3,0,0
119,nb1TestingBlock,2,0,left,1,0.5754207,left,0.83713722,0.8298714378149336,3,0,0
119,nb2TestingBlock,3,0,left,1,0.9222019,left,0.8882565222222222,0.3971090871293029,9,0,0
119,nb2TestingBlock,9,3,right,1,0.8404283,right,0.8882565222222222,0.3971090871293029,9,0,0
119,nb2TestingBlock,2,1,right,0,0.9212206,left,0.8882565222222222,0.3971090871293029,9,0,0
119,nb2TestingBlock,9,0,left,1,0.8887276,left,0.8882565222222222,0.3971090871293029,9,0,0
119,nb2TestingBlock,4,2,right,1,1.2321521,right,0.8882565222222222,0.3971090871293029,9,0,0
119,nb2TestingBlock,10,1,right,1,0.8567534,right,0.8882565222222222,0.3971090871293029,9,0,0
119,nb2TestingBlock,6,2,right,0,0.7062058,left,0.8882565222222222,0.3971090871293029,9,0,0
119,nb2TestingBlock,6,4,right,1,1.387782,right,0.8882565222222222,0.3971090871293029,9,0,0
119,nb2TestingBlock,7,1,right,0,0.856557,left,0.8882565222222222,0.3971090871293029,9,0,0
119,nb2TestingBlock,6,0,left,1,0.8996677,left,0.8882565222222222,0.3971090871293029,9,0,0
119,nb2TestingBlock,5,2,right,1,2.0592722,right,0.8882565222222222,0.3971090871293029,9,0,0
119,nb2TestingBlock,10,4,right,0,0.9368009,left,0.8882565222222222,0.3971090871293029,9,0,0
119,nb2TestingBlock,2,3,right,0,1.21822,left,0.8882565222222222,0.3971090871293029,9,0,0
119,nb2TestingBlock,13,3,right,1,0.824754,right,0.8882565222222222,0.3971090871293029,9,0,0
119,nb2TestingBlock,3,1,right,1,0.72587140000000006,right,0.8882565222222222,0.3971090871293029,9,0,0
119,nb2TestingBlock,1,3,right,1,0.6084274,right,0.8882565222222222,0.3971090871293029,9,0,0
119,nb2TestingBlock,3,0,left,1,0.6158802,left,0.8882565222222222,0.3971090871293029,9,0,0
119,nb2TestingBlock,1,0,left,1,0.754563,left,0.8882565222222222,0.3971090871293029,9,0,0
119,nb2TestingBlock,4,1,right,0,0.7506591,left,0.8882565222222222,0.3971090871293029,9,0,0
119,nb2TestingBlock,1,0,left,1,1.0382891,left,0.8882565222222222,0.3971090871293029,9,0,0
119,nb2TestingBlock,4,0,left,0,0.8891966,right,0.8882565222222222,0.3971090871293029,9,0,0
119,nb2TestingBlock,5,4,right,1,0.9612924,right,0.8882565222222222,0.3971090871293029,9,0,0
119,nb2TestingBlock,0,4,right,1,1.3131664,right,0.8882565222222222,0.3971090871293029,9,0,0
119,nb2TestingBlock,5,0,left,1,0.7938456,left,0.8882565222222222,0.3971090871293029,9,0,0
119,nb2TestingBlock,3,3,right,0,0.7101111,left,0.8882565222222222,0.3971090871293029,9,0,0
119,nb2TestingBlock,1,4,right,1,2.2947446,right,0.8882565222222222,0.3971090871293029,9,1,0
119,nb2TestingBlock,1,2,right,1,1.5613404,right,0.8882565222222222,0.3971090871293029,9,0,0
119,nb2TestingBlock,12,4,right,1,0.9054945,right,0.8882565222222222,0.3971090871293029,9,0,0
119,nb2TestingBlock,14,2,right,1,0.8052601,right,0.8882565222222222,0.3971090871293029,9,0,0
119,nb2TestingBlock,11,1,right,0,0.7214514,left,0.8882565222222222,0.3971090871293029,9,0,0
119,nb2TestingBlock,14,0,left,1,0.5771514,left,0.8882565222222222,0.3971090871293029,9,0,0
119,nb2TestingBlock,14,3,right,0,0.8744658,left,0.8882565222222222,0.3971090871293029,9,0,0
119,nb2TestingBlock,12,2,right,0,0.7438072,left,0.8882565222222222,0.3971090871293029,9,0,0
119,nb2TestingBlock,0,1,right,1,0.6606489,right,0.8882565222222222,0.3971090871293029,9,0,0
119,nb2TestingBlock,8,4,right,1,0.6129101,right,0.8882565222222222,0.3971090871293029,9,0,0
119,nb2TestingBlock,0,0,left,1,0.8349476,left,0.8882565222222222,0.3971090871293029,9,0,0
119,nb2TestingBlock,11,3,right,1,0.7663008,right,0.8882565222222222,0.3971090871293029,9,0,0
119,nb2TestingBlock,13,2,right,1,0.5842324,right,0.8882565222222222,0.3971090871293029,9,0,0
119,nb2TestingBlock,11,0,left,1,0.8214039,left,0.8882565222222222,0.3971090871293029,9,0,0
119,nb2TestingBlock,11,2,right,1,0.9326721,right,0.8882565222222222,0.3971090871293029,9,0,0
119,nb2TestingBlock,11,0,left,1,0.8823667,left,0.8882565222222222,0.3971090871293029,9,0,0
119,nb2TestingBlock,8,3,right,1,0.865363,right,0.8882565222222222,0.3971090871293029,9,0,0
119,nb2TestingBlock,9,2,right,1,3.3575029,right,0.8882565222222222,0.3971090871293029,9,1,0
119,nb2TestingBlock,9,1,right,0,1.3048425,left,0.8882565222222222,0.3971090871293029,9,0,0
119,nb2TestingBlock,7,2,right,0,0.7764718,left,0.8882565222222222,0.3971090871293029,9,0,0
119,nb2TestingBlock,9,0,left,0,0.8181355,right,0.8882565222222222,0.3971090871293029,9,0,0
119,nb2TestingBlock,7,0,left,1,0.731352,left,0.8882565222222222,0.3971090871293029,9,0,0
119,nb2TestingBlock,8,1,right,1,0.8267507,right,0.8882565222222222,0.3971090871293029,9,0,0
119,nb2TestingBlock,3,4,right,1,1.3013971,right,0.8882565222222222,0.3971090871293029,9,0,0
119,nb2TestingBlock,8,0,left,1,0.7123671,left,0.8882565222222222,0.3971090871293029,9,0,0
119,nb2TestingBlock,6,3,right,1,0.6782827,right,0.8882565222222222,0.3971090871293029,9,0,0
119,nb2TestingBlock,10,2,right,1,0.8941001,right,0.8882565222222222,0.3971090871293029,9,0,0
119,nb2TestingBlock,6,0,left,1,0.6513635,left,0.8882565222222222,0.3971090871293029,9,0,0
119,nb2TestingBlock,10,0,left,1,0.4435219,left,0.8882565222222222,0.3971090871293029,9,0,0
119,nb2TestingBlock,5,1,right,1,0.8245087,right,0.8882565222222222,0.3971090871293029,9,0,0
119,nb2TestingBlock,10,0,left,1,0.740979,left,0.8882565222222222,0.3971090871293029,9,0,0
119,nb2TestingBlock,5,0,left,1,0.7408311,left,0.8882565222222222,0.3971090871293029,9,0,0
119,nb2TestingBlock,7,3,right,1,0.7253631,right,0.8882565222222222,0.3971090871293029,9,0,0
119,nb2TestingBlock,3,2,right,1,0.8331029,right,0.8882565222222222,0.3971090871293029,9,0,0
119,nb2TestingBlock,10,3,right,1,0.6863113,right,0.8882565222222222,0.3971090871293029,9,0,0
119,nb2TestingBlock,7,4,right,0,0.9048344,left,0.8882565222222222,0.3971090871293029,9,0,0
119,nb2TestingBlock,14,4,right,1,0.692761,right,0.8882565222222222,0.3971090871293029,9,0,0
119,nb2TestingBlock,6,1,right,1,0.6749525,right,0.8882565222222222,0.3971090871293029,9,0,0
119,nb2TestingBlock,14,0,left,1,0.7668857,left,0.8882565222222222,0.3971090871293029,9,0,0
119,nb2TestingBlock,2,4,right,1,0.8574813,right,0.8882565222222222,0.3971090871293029,9,0,0
119,nb2TestingBlock,13,1,right,1,0.7223624,right,0.8882565222222222,0.3971090871293029,9,0,0
119,nb2TestingBlock,1,1,right,1,0.688724,right,0.8882565222222222,0.3971090871293029,9,0,0
119,nb2TestingBlock,0,2,right,1,0.6169646,right,0.8882565222222222,0.3971090871293029,9,0,0
119,nb2TestingBlock,4,3,right,0,0.7862236,left,0.8882565222222222,0.3971090871293029,9,0,0
119,nb2TestingBlock,4,4,right,1,0.7322724,right,0.8882565222222222,0.3971090871293029,9,0,0
119,nb2TestingBlock,8,4,right,1,1.8344655,right,0.8882565222222222,0.3971090871293029,9,0,0
119,nb2TestingBlock,4,0,left,0,0.9198995,right,0.8882565222222222,0.3971090871293029,9,0,0
119,nb2TestingBlock,8,0,left,1,0.7663825,left,0.8882565222222222,0.3971090871293029,9,0,0
119,nb2TestingBlock,2,2,right,1,0.6493128,right,0.8882565222222222,0.3971090871293029,9,0,0
119,nb2TestingBlock,5,3,right,0,0.5931579,left,0.8882565222222222,0.3971090871293029,9,0,0
119,nb2TestingBlock,2,0,left,0,0.8628314,right,0.8882565222222222,0.3971090871293029,9,0,0
119,nb2TestingBlock,2,3,right,0,0.4769335,left,0.8882565222222222,0.3971090871293029,9,0,0
119,nb2TestingBlock,13,4,right,1,0.9987065,right,0.8882565222222222,0.3971090871293029,9,0,0
119,nb2TestingBlock,2,0,left,1,0.8465547,left,0.8882565222222222,0.3971090871293029,9,0,0
119,nb2TestingBlock,13,0,left,1,0.7295732,left,0.8882565222222222,0.3971090871293029,9,0,0
119,nb2TestingBlock,14,3,right,1,0.6564315,right,0.8882565222222222,0.3971090871293029,9,0,0
119,nb2TestingBlock,13,0,left,1,0.7627939,left,0.8882565222222222,0.3971090871293029,9,0,0
119,nb2TestingBlock,12,2,right,1,0.7924087,right,0.8882565222222222,0.3971090871293029,9,0,0
119,nb2TestingBlock,12,1,right,1,0.7585128,right,0.8882565222222222,0.3971090871293029,9,0,0
119,nb2TestingBlock,1,4,right,1,0.7980814,right,0.8882565222222222,0.3971090871293029,9,0,0
119,nb2TestingBlock,12,0,left,1,0.6623925,left,0.8882565222222222,0.3971090871293029,9,0,0
119,nb2TestingBlock,0,1,right,0,0.5175951,left,0.8882565222222222,0.3971090871293029,9,0,0
119,nb2TestingBlock,12,0,left,0,0.8469131,right,0.8882565222222222,0.3971090871293029,9,0,0
119,nb2TestingBlock,0,0,left,1,0.7130758,left,0.8882565222222222,0.3971090871293029,9,0,0
119,nb2TestingBlock,12,0,left,1,1.1098122,left,0.8882565222222222,0.3971090871293029,9,0,0
120,nb1TestingBlock,11,0,left,1,0.7019435,left,0.8202653533333333,0.13768094429096903,3,0,0
120,nb1TestingBlock,7,4,right,1,0.8574966,right,0.8202653533333333,0.13768094429096903,3,0,0
120,nb1TestingBlock,8,1,right,0,0.799269,left,0.8202653533333333,0.13768094429096903,3,0,0
120,nb1TestingBlock,12,4,right,1,0.6259739,right,0.8202653533333333,0.13768094429096903,3,0,0
120,nb1TestingBlock,12,0,left,0,1.0346213,right,0.8202653533333333,0.13768094429096903,3,0,0
120,nb1TestingBlock,0,3,right,1,1.0615238,right,0.8202653533333333,0.13768094429096903,3,0,0
120,nb1TestingBlock,0,0,left,0,0.9490504,right,0.8202653533333333,0.13768094429096903,3,0,0
120,nb1TestingBlock,1,1,right,1,1.1136517,right,0.8202653533333333,0.13768094429096903,3,0,0
120,nb1TestingBlock,3,2,right,1,0.8065087,right,0.8202653533333333,0.13768094429096903,3,0,0
120,nb1TestingBlock,2,1,right,1,0.9737142,right,0.8202653533333333,0.13768094429096903,3,0,0
120,nb1TestingBlock,6,4,right,0,0.7760388,left,0.8202653533333333,0.13768094429096903,3,0,0
120,nb1TestingBlock,6,0,left,1,0.9756827,left,0.8202653533333333,0.13768094429096903,3,0,0
120,nb1TestingBlock,6,0,left,1,0.8724677,left,0.8202653533333333,0.13768094429096903,3,0,0
120,nb1TestingBlock,10,4,right,1,0.7080198,right,0.8202653533333333,0.13768094429096903,3,0,0
120,nb1TestingBlock,8,2,right,1,0.8411116,right,0.8202653533333333,0.13768094429096903,3,0,0
120,nb1TestingBlock,8,0,left,1,0.5172164,left,0.8202653533333333,0.13768094429096903,3,0,0
120,nb1TestingBlock,6,2,right,1,0.6679246,right,0.8202653533333333,0.13768094429096903,3,0,0
120,nb1TestingBlock,9,3,right,1,0.7382024,right,0.8202653533333333,0.13768094429096903,3,0,0
120,nb1TestingBlock,9,0,left,1,0.9047548,left,0.8202653533333333,0.13768094429096903,3,0,0
120,nb1TestingBlock,5,4,right,1,0.8335302,right,0.8202653533333333,0.13768094429096903,3,0,0
120,nb1TestingBlock,4,1,right,0,0.9713796,left,0.8202653533333333,0.13768094429096903,3,0,0
120,nb1TestingBlock,4,0,left,1,0.7756179,left,0.8202653533333333,0.13768094429096903,3,0,0
120,nb1TestingBlock,2,2,right,1,0.8640857,right,0.8202653533333333,0.13768094429096903,3,0,0
120,nb1TestingBlock,14,3,right,1,0.874723,right,0.8202653533333333,0.13768094429096903,3,0,0
120,nb1TestingBlock,11,3,right,1,0.7716441,right,0.8202653533333333,0.13768094429096903,3,0,0
120,nb1TestingBlock,13,2,right,1,0.7029606,right,0.8202653533333333,0.13768094429096903,3,0,0
120,nb1TestingBlock,13,0,left,1,0.7455093,left,0.8202653533333333,0.13768094429096903,3,0,0
120,nb1TestingBlock,14,1,right,1,0.6416306,right,0.8202653533333333,0.13768094429096903,3,0,0
120,nb1TestingBlock,2,3,right,1,0.7796602,right,0.8202653533333333,0.13768094429096903,3,0,0
120,nb1TestingBlock,2,0,left,1,0.7220475,left,0.8202653533333333,0.13768094429096903,3,0,0
120,nb2TestingBlock,3,0,left,1,0.8250762,left,0.9455496411111111,0.31383307664476273,9,0,0
120,nb2TestingBlock,9,3,right,1,0.7569204,right,0.9455496411111111,0.31383307664476273,9,0,0
120,nb2TestingBlock,2,1,right,1,1.0860764,right,0.9455496411111111,0.31383307664476273,9,0,0
120,nb2TestingBlock,9,0,left,1,0.7924046,left,0.9455496411111111,0.31383307664476273,9,0,0
120,nb2TestingBlock,4,2,right,1,1.4954464,right,0.9455496411111111,0.31383307664476273,9,0,0
120,nb2TestingBlock,10,1,right,0,1.0026497,left,0.9455496411111111,0.31383307664476273,9,0,0
120,nb2TestingBlock,6,2,right,1,1.5372221,right,0.9455496411111111,0.31383307664476273,9,0,0
120,nb2TestingBlock,6,4,right,1,1.5450683,right,0.9455496411111111,0.31383307664476273,9,0,0
120,nb2TestingBlock,7,1,right,1,1.2087009,right,0.9455496411111111,0.31383307664476273,9,0,0
120,nb2TestingBlock,6,0,left,1,0.8417069,left,0.9455496411111111,0.31383307664476273,9,0,0
120,nb2TestingBlock,5,2,right,1,1.6738211,right,0.9455496411111111,0.31383307664476273,9,0,0
120,nb2TestingBlock,10,4,right,1,0.9850006,right,0.9455496411111111,0.31383307664476273,9,0,0
120,nb2TestingBlock,2,3,right,1,0.9647016,right,0.9455496411111111,0.31383307664476273,9,0,0
120,nb2TestingBlock,13,3,right,1,0.7045918,right,0.9455496411111111,0.31383307664476273,9,0,0
120,nb2TestingBlock,3,1,right,0,0.9885584,left,0.9455496411111111,0.31383307664476273,9,0,0
120,nb2TestingBlock,1,3,right,1,0.916247,right,0.9455496411111111,0.31383307664476273,9,0,0
120,nb2TestingBlock,3,0,left,1,0.862781,left,0.9455496411111111,0.31383307664476273,9,0,0
120,nb2TestingBlock,1,0,left,1,0.6048417,left,0.9455496411111111,0.31383307664476273,9,0,0
120,nb2TestingBlock,4,1,right,1,1.8971718,right,0.9455496411111111,0.31383307664476273,9,1,0
120,nb2TestingBlock,1,0,left,1,0.9533654,left,0.9455496411111111,0.31383307664476273,9,0,0
120,nb2TestingBlock,4,0,left,1,0.7741902,left,0.9455496411111111,0.31383307664476273,9,0,0
120,nb2TestingBlock,5,4,right,1,1.0597563,right,0.9455496411111111,0.31383307664476273,9,0,0
120,nb2TestingBlock,0,4,right,1,1.1603537,right,0.9455496411111111,0.31383307664476273,9,0,0
120,nb2TestingBlock,5,0,left,1,1.3850434,left,0.9455496411111111,0.31383307664476273,9,0,0
120,nb2TestingBlock,3,3,right,1,0.8568003,right,0.9455496411111111,0.31383307664476273,9,0,0
120,nb2TestingBlock,1,4,right,1,0.6750497,right,0.9455496411111111,0.31383307664476273,9,0,0
120,nb2TestingBlock,1,2,right,1,0.7031448,right,0.9455496411111111,0.31383307664476273,9,0,0
120,nb2TestingBlock,12,4,right,1,0.6855261,right,0.9455496411111111,0.31383307664476273,9,0,0
120,nb2TestingBlock,14,2,right,1,0.6801141,right,0.9455496411111111,0.31383307664476273,9,0,0
120,nb2TestingBlock,11,1,right,0,0.584972,left,0.9455496411111111,0.31383307664476273,9,0,0
120,nb2TestingBlock,14,0,left,1,0.9168492,left,0.9455496411111111,0.31383307664476273,9,0,0
120,nb2TestingBlock,14,3,right,1,0.7508689,right,0.9455496411111111,0.31383307664476273,9,0,0
120,nb2TestingBlock,12,2,right,1,0.9427787,right,0.9455496411111111,0.31383307664476273,9,0,0
120,nb2TestingBlock,0,1,right,1,0.7967836,right,0.9455496411111111,0.31383307664476273,9,0,0
120,nb2TestingBlock,8,4,right,1,1.2870403,right,0.9455496411111111,0.31383307664476273,9,0,0
120,nb2TestingBlock,0,0,left,1,0.6816046,left,0.9455496411111111,0.31383307664476273,9,0,0
120,nb2TestingBlock,11,3,right,1,1.7211933,right,0.9455496411111111,0.31383307664476273,9,0,0
120,nb2TestingBlock,13,2,right,1,0.8574292,right,0.9455496411111111,0.31383307664476273,9,0,0
120,nb2TestingBlock,11,0,left,1,0.6904277,left,0.9455496411111111,0.31383307664476273,9,0,0
120,nb2TestingBlock,11,2,right,1,0.8187354,right,0.9455496411111111,0.31383307664476273,9,0,0
120,nb2TestingBlock,11,0,left,1,0.6989011,left,0.9455496411111111,0.31383307664476273,9,0,0
120,nb2TestingBlock,8,3,right,1,1.0429635,right,0.9455496411111111,0.31383307664476273,9,0,0
120,nb2TestingBlock,9,2,right,1,1.5938073,right,0.9455496411111111,0.31383307664476273,9,0,0
120,nb2TestingBlock,9,1,right,1,0.9846163,right,0.9455496411111111,0.31383307664476273,9,0,0
120,nb2TestingBlock,7,2,right,1,1.6196178,right,0.9455496411111111,0.31383307664476273,9,0,0
120,nb2TestingBlock,9,0,left,1,0.8402958,left,0.9455496411111111,0.31383307664476273,9,0,0
120,nb2TestingBlock,7,0,left,1,0.8733057,left,0.9455496411111111,0.31383307664476273,9,0,0
120,nb2TestingBlock,8,1,right,1,1.5902437,right,0.9455496411111111,0.31383307664476273,9,0,0
120,nb2TestingBlock,3,4,right,1,0.9851038,right,0.9455496411111111,0.31383307664476273,9,0,0
120,nb2TestingBlock,8,0,left,1,1.3170943,left,0.9455496411111111,0.31383307664476273,9,0,0
120,nb2TestingBlock,6,3,right,1,0.7604838,right,0.9455496411111111,0.31383307664476273,9,0,0
120,nb2TestingBlock,10,2,right,1,0.857551,right,0.9455496411111111,0.31383307664476273,9,0,0
120,nb2TestingBlock,6,0,left,1,0.6908288,left,0.9455496411111111,0.31383307664476273,9,0,0
120,nb2TestingBlock,10,0,left,1,0.482119,left,0.9455496411111111,0.31383307664476273,9,0,0
120,nb2TestingBlock,5,1,right,1,0.9283829,right,0.9455496411111111,0.31383307664476273,9,0,0
120,nb2TestingBlock,10,0,left,1,0.8241179,left,0.9455496411111111,0.31383307664476273,9,0,0
120,nb2TestingBlock,5,0,left,0,0.8516456,right,0.9455496411111111,0.31383307664476273,9,0,0
120,nb2TestingBlock,7,3,right,1,1.0747216,right,0.9455496411111111,0.31383307664476273,9,0,0
120,nb2TestingBlock,3,2,right,1,0.7938028,right,0.9455496411111111,0.31383307664476273,9,0,0
120,nb2TestingBlock,10,3,right,0,0.6945673,left,0.9455496411111111,0.31383307664476273,9,0,0
120,nb2TestingBlock,7,4,right,0,0.898177,left,0.9455496411111111,0.31383307664476273,9,0,0
120,nb2TestingBlock,14,4,right,1,0.954907,right,0.9455496411111111,0.31383307664476273,9,0,0
120,nb2TestingBlock,6,1,right,1,1.1264228,right,0.9455496411111111,0.31383307664476273,9,0,0
120,nb2TestingBlock,14,0,left,1,0.5207762,left,0.9455496411111111,0.31383307664476273,9,0,0
120,nb2TestingBlock,2,4,right,1,0.7608516,right,0.9455496411111111,0.31383307664476273,9,0,0
120,nb2TestingBlock,13,1,right,1,1.19211,right,0.9455496411111111,0.31383307664476273,9,0,0
120,nb2TestingBlock,1,1,right,0,0.841403,left,0.9455496411111111,0.31383307664476273,9,0,0
120,nb2TestingBlock,0,2,right,1,0.7930724,right,0.9455496411111111,0.31383307664476273,9,0,0
120,nb2TestingBlock,4,3,right,1,0.759223,right,0.9455496411111111,0.31383307664476273,9,0,0
120,nb2TestingBlock,4,4,right,1,0.9261518,right,0.9455496411111111,0.31383307664476273,9,0,0
120,nb2TestingBlock,8,4,right,1,0.9041808,right,0.9455496411111111,0.31383307664476273,9,0,0
120,nb2TestingBlock,4,0,left,1,0.6779667,left,0.9455496411111111,0.31383307664476273,9,0,0
120,nb2TestingBlock,8,0,left,1,0.5417794,left,0.9455496411111111,0.31383307664476273,9,0,0
120,nb2TestingBlock,2,2,right,1,0.7003174,right,0.9455496411111111,0.31383307664476273,9,0,0
120,nb2TestingBlock,5,3,right,0,1.4041137,left,0.9455496411111111,0.31383307664476273,9,0,0
120,nb2TestingBlock,2,0,left,1,1.0490925,left,0.9455496411111111,0.31383307664476273,9,0,0
120,nb2TestingBlock,2,3,right,1,0.8569741,right,0.9455496411111111,0.31383307664476273,9,0,0
120,nb2TestingBlock,13,4,right,1,1.5542716,right,0.9455496411111111,0.31383307664476273,9,0,0
120,nb2TestingBlock,2,0,left,1,0.5524442,left,0.9455496411111111,0.31383307664476273,9,0,0
120,nb2TestingBlock,13,0,left,1,0.5193008,left,0.9455496411111111,0.31383307664476273,9,0,0
120,nb2TestingBlock,14,3,right,1,0.7505956,right,0.9455496411111111,0.31383307664476273,9,0,0
120,nb2TestingBlock,13,0,left,1,1.0540389,left,0.9455496411111111,0.31383307664476273,9,0,0
120,nb2TestingBlock,12,2,right,1,1.4331011,right,0.9455496411111111,0.31383307664476273,9,0,0
120,nb2TestingBlock,12,1,right,0,0.7131404,left,0.9455496411111111,0.31383307664476273,9,0,0
120,nb2TestingBlock,1,4,right,1,0.8064035,right,0.9455496411111111,0.31383307664476273,9,0,0
120,nb2TestingBlock,12,0,left,1,0.9128044,left,0.9455496411111111,0.31383307664476273,9,0,0
120,nb2TestingBlock,0,1,right,1,0.782581,right,0.9455496411111111,0.31383307664476273,9,0,0
120,nb2TestingBlock,12,0,left,1,0.588907,left,0.9455496411111111,0.31383307664476273,9,0,0
120,nb2TestingBlock,0,0,left,1,0.8842347,left,0.9455496411111111,0.31383307664476273,9,0,0
120,nb2TestingBlock,12,0,left,1,0.4649413,left,0.9455496411111111,0.31383307664476273,9,0,0
121,nb1TestingBlock,11,0,left,1,1.005629,left,0.6331614566666667,0.16765887466628981,3,0,0
121,nb1TestingBlock,7,4,right,1,0.5010305,right,0.6331614566666667,0.16765887466628981,3,0,0
121,nb1TestingBlock,8,1,right,1,0.7384295,right,0.6331614566666667,0.16765887466628981,3,0,0
121,nb1TestingBlock,12,4,right,1,0.5337636,right,0.6331614566666667,0.16765887466628981,3,0,0
121,nb1TestingBlock,12,0,left,1,0.4465166,left,0.6331614566666667,0.16765887466628981,3,0,0
121,nb1TestingBlock,0,3,right,1,0.4694572,right,0.6331614566666667,0.16765887466628981,3,0,0
121,nb1TestingBlock,0,0,left,1,0.5528928,left,0.6331614566666667,0.16765887466628981,3,0,0
121,nb1TestingBlock,1,1,right,1,0.7399148,right,0.6331614566666667,0.16765887466628981,3,0,0
121,nb1TestingBlock,3,2,right,1,0.5951941,right,0.6331614566666667,0.16765887466628981,3,0,0
121,nb1TestingBlock,2,1,right,1,0.8760723,right,0.6331614566666667,0.16765887466628981,3,0,0
121,nb1TestingBlock,6,4,right,1,1.1563119,right,0.6331614566666667,0.16765887466628981,3,1,0
121,nb1TestingBlock,6,0,left,1,0.5178547,left,0.6331614566666667,0.16765887466628981,3,0,0
121,nb1TestingBlock,6,0,left,1,0.5871519,left,0.6331614566666667,0.16765887466628981,3,0,0
121,nb1TestingBlock,10,4,right,1,0.6106841,right,0.6331614566666667,0.16765887466628981,3,0,0
121,nb1TestingBlock,8,2,right,1,0.5421872,right,0.6331614566666667,0.16765887466628981,3,0,0
121,nb1TestingBlock,8,0,left,1,0.5852993,left,0.6331614566666667,0.16765887466628981,3,0,0
121,nb1TestingBlock,6,2,right,1,0.5776102,right,0.6331614566666667,0.16765887466628981,3,0,0
121,nb1TestingBlock,9,3,right,0,0.6470022,left,0.6331614566666667,0.16765887466628981,3,0,0
121,nb1TestingBlock,9,0,left,1,0.7176568,left,0.6331614566666667,0.16765887466628981,3,0,0
121,nb1TestingBlock,5,4,right,1,0.6914198,right,0.6331614566666667,0.16765887466628981,3,0,0
121,nb1TestingBlock,4,1,right,1,0.7192781,right,0.6331614566666667,0.16765887466628981,3,0,0
121,nb1TestingBlock,4,0,left,1,0.5787837,left,0.6331614566666667,0.16765887466628981,3,0,0
121,nb1TestingBlock,2,2,right,1,0.9207366,right,0.6331614566666667,0.16765887466628981,3,0,0
121,nb1TestingBlock,14,3,right,1,0.5172341,right,0.6331614566666667,0.16765887466628981,3,0,0
121,nb1TestingBlock,11,3,right,1,0.490092,right,0.6331614566666667,0.16765887466628981,3,0,0
121,nb1TestingBlock,13,2,right,1,0.582156,right,0.6331614566666667,0.16765887466628981,3,0,0
121,nb1TestingBlock,13,0,left,1,0.5773284,left,0.6331614566666667,0.16765887466628981,3,0,0
121,nb1TestingBlock,14,1,right,1,0.5205203,right,0.6331614566666667,0.16765887466628981,3,0,0
121,nb1TestingBlock,2,3,right,1,0.5327156,right,0.6331614566666667,0.16765887466628981,3,0,0
121,nb1TestingBlock,2,0,left,1,0.4639204,left,0.6331614566666667,0.16765887466628981,3,0,0
121,nb2TestingBlock,3,0,left,1,0.9687936,left,0.7988471555555555,0.17325985711703867,9,0,0
121,nb2TestingBlock,9,3,right,1,0.8330007,right,0.7988471555555555,0.17325985711703867,9,0,0
121,nb2TestingBlock,2,1,right,1,1.4063791,right,0.7988471555555555,0.17325985711703867,9,1,0
121,nb2TestingBlock,9,0,left,1,0.8094081,left,0.7988471555555555,0.17325985711703867,9,0,0
121,nb2TestingBlock,4,2,right,1,0.8962063,right,0.7988471555555555,0.17325985711703867,9,0,0
121,nb2TestingBlock,10,1,right,1,1.0192402,right,0.7988471555555555,0.17325985711703867,9,0,0
121,nb2TestingBlock,6,2,right,1,0.7128843,right,0.7988471555555555,0.17325985711703867,9,0,0
121,nb2TestingBlock,6,4,right,0,0.7740225,left,0.7988471555555555,0.17325985711703867,9,0,0
121,nb2TestingBlock,7,1,right,1,0.6585518,right,0.7988471555555555,0.17325985711703867,9,0,0
121,nb2TestingBlock,6,0,left,1,0.7305795,left,0.7988471555555555,0.17325985711703867,9,0,0
121,nb2TestingBlock,5,2,right,1,0.6987747,right,0.7988471555555555,0.17325985711703867,9,0,0
121,nb2TestingBlock,10,4,right,1,0.8187218,right,0.7988471555555555,0.17325985711703867,9,0,0
121,nb2TestingBlock,2,3,right,1,1.4990097,right,0.7988471555555555,0.17325985711703867,9,1,0
121,nb2TestingBlock,13,3,right,1,0.7449665,right,0.7988471555555555,0.17325985711703867,9,0,0
121,nb2TestingBlock,3,1,right,1,1.0127455,right,0.7988471555555555,0.17325985711703867,9,0,0
121,nb2TestingBlock,1,3,right,1,0.9361928,right,0.7988471555555555,0.17325985711703867,9,0,0
121,nb2TestingBlock,3,0,left,1,0.8024178,left,0.7988471555555555,0.17325985711703867,9,0,0
121,nb2TestingBlock,1,0,left,1,0.7848947,left,0.7988471555555555,0.17325985711703867,9,0,0
121,nb2TestingBlock,4,1,right,1,0.6370953,right,0.7988471555555555,0.17325985711703867,9,0,0
121,nb2TestingBlock,1,0,left,1,0.7588644,left,0.7988471555555555,0.17325985711703867,9,0,0
121,nb2TestingBlock,4,0,left,1,0.7983055,left,0.7988471555555555,0.17325985711703867,9,0,0
121,nb2TestingBlock,5,4,right,1,0.6466929,right,0.7988471555555555,0.17325985711703867,9,0,0
121,nb2TestingBlock,0,4,right,1,0.9129401,right,0.7988471555555555,0.17325985711703867,9,0,0
121,nb2TestingBlock,5,0,left,1,0.7193164,left,0.7988471555555555,0.17325985711703867,9,0,0
121,nb2TestingBlock,3,3,right,1,0.7910684,right,0.7988471555555555,0.17325985711703867,9,0,0
121,nb2TestingBlock,1,4,right,1,0.934699,right,0.7988471555555555,0.17325985711703867,9,0,0
121,nb2TestingBlock,1,2,right,0,0.659579,left,0.7988471555555555,0.17325985711703867,9,0,0
121,nb2TestingBlock,12,4,right,1,0.7794593,right,0.7988471555555555,0.17325985711703867,9,0,0
121,nb2TestingBlock,14,2,right,1,0.7220994,right,0.7988471555555555,0.17325985711703867,9,0,0
121,nb2TestingBlock,11,1,right,1,0.8645257,right,0.7988471555555555,0.17325985711703867,9,0,0
121,nb2TestingBlock,14,0,left,1,0.7962844,left,0.7988471555555555,0.17325985711703867,9,0,0
121,nb2TestingBlock,14,3,right,0,0.5507311,left,0.7988471555555555,0.17325985711703867,9,0,0
121,nb2TestingBlock,12,2,right,1,0.9829861,right,0.7988471555555555,0.17325985711703867,9,0,0
121,nb2TestingBlock,0,1,right,1,0.9320693,right,0.7988471555555555,0.17325985711703867,9,0,0
121,nb2TestingBlock,8,4,right,1,0.6907009,right,0.7988471555555555,0.17325985711703867,9,0,0
121,nb2TestingBlock,0,0,left,0,0.8499134,right,0.7988471555555555,0.17325985711703867,9,0,0
121,nb2TestingBlock,11,3,right,1,1.139115,right,0.7988471555555555,0.17325985711703867,9,0,0
121,nb2TestingBlock,13,2,right,1,0.7929617,right,0.7988471555555555,0.17325985711703867,9,0,0
121,nb2TestingBlock,11,0,left,1,0.6638487,left,0.7988471555555555,0.17325985711703867,9,0,0
121,nb2TestingBlock,11,2,right,1,0.6124718,right,0.7988471555555555,0.17325985711703867,9,0,0
121,nb2TestingBlock,11,0,left,1,0.7868027,left,0.7988471555555555,0.17325985711703867,9,0,0
121,nb2TestingBlock,8,3,right,1,0.7009458,right,0.7988471555555555,0.17325985711703867,9,0,0
121,nb2TestingBlock,9,2,right,1,0.7320754,right,0.7988471555555555,0.17325985711703867,9,0,0
121,nb2TestingBlock,9,1,right,0,0.6189528,left,0.7988471555555555,0.17325985711703867,9,0,0
121,nb2TestingBlock,7,2,right,1,1.0582563,right,0.7988471555555555,0.17325985711703867,9,0,0
121,nb2TestingBlock,9,0,left,1,0.6648384,left,0.7988471555555555,0.17325985711703867,9,0,0
121,nb2TestingBlock,7,0,left,0,0.7889344,right,0.7988471555555555,0.17325985711703867,9,0,0
121,nb2TestingBlock,8,1,right,1,1.3409149,right,0.7988471555555555,0.17325985711703867,9,1,0
121,nb2TestingBlock,3,4,right,1,0.7767108,right,0.7988471555555555,0.17325985711703867,9,0,0
121,nb2TestingBlock,8,0,left,1,0.7873321,left,0.7988471555555555,0.17325985711703867,9,0,0
121,nb2TestingBlock,6,3,right,1,0.589625,right,0.7988471555555555,0.17325985711703867,9,0,0
121,nb2TestingBlock,10,2,right,1,0.6763173,right,0.7988471555555555,0.17325985711703867,9,0,0
121,nb2TestingBlock,6,0,left,1,0.8147699,left,0.7988471555555555,0.17325985711703867,9,0,0
121,nb2TestingBlock,10,0,left,1,0.9550181,left,0.7988471555555555,0.17325985711703867,9,0,0
121,nb2TestingBlock,5,1,right,1,0.6791537,right,0.7988471555555555,0.17325985711703867,9,0,0
121,nb2TestingBlock,10,0,left,1,0.6710522,left,0.7988471555555555,0.17325985711703867,9,0,0
121,nb2TestingBlock,5,0,left,1,0.8299779,left,0.7988471555555555,0.17325985711703867,9,0,0
121,nb2TestingBlock,7,3,right,1,0.8144955,right,0.7988471555555555,0.17325985711703867,9,0,0
121,nb2TestingBlock,3,2,right,1,0.9382579,right,0.7988471555555555,0.17325985711703867,9,0,0
121,nb2TestingBlock,10,3,right,0,0.9298238,left,0.7988471555555555,0.17325985711703867,9,0,0
121,nb2TestingBlock,7,4,right,1,1.0482937,right,0.7988471555555555,0.17325985711703867,9,0,0
121,nb2TestingBlock,14,4,right,1,0.7457143,right,0.7988471555555555,0.17325985711703867,9,0,0
121,nb2TestingBlock,6,1,right,0,0.7403467,left,0.7988471555555555,0.17325985711703867,9,0,0
121,nb2TestingBlock,14,0,left,0,0.9493558,right,0.7988471555555555,0.17325985711703867,9,0,0
121,nb2TestingBlock,2,4,right,1,0.6516999,right,0.7988471555555555,0.17325985711703867,9,0,0
121,nb2TestingBlock,13,1,right,1,0.7460431,right,0.7988471555555555,0.17325985711703867,9,0,0
121,nb2TestingBlock,1,1,right,1,0.9808922,right,0.7988471555555555,0.17325985711703867,9,0,0
121,nb2TestingBlock,0,2,right,1,0.8529771,right,0.7988471555555555,0.17325985711703867,9,0,0
121,nb2TestingBlock,4,3,right,1,0.73833,right,0.7988471555555555,0.17325985711703867,9,0,0
121,nb2TestingBlock,4,4,right,0,0.6029647,left,0.7988471555555555,0.17325985711703867,9,0,0
121,nb2TestingBlock,8,4,right,1,0.6805939,right,0.7988471555555555,0.17325985711703867,9,0,0
121,nb2TestingBlock,4,0,left,1,0.6487394,left,0.7988471555555555,0.17325985711703867,9,0,0
121,nb2TestingBlock,8,0,left,1,0.6727058,left,0.7988471555555555,0.17325985711703867,9,0,0
121,nb2TestingBlock,2,2,right,1,0.6875585,right,0.7988471555555555,0.17325985711703867,9,0,0
121,nb2TestingBlock,5,3,right,1,0.6330519,right,0.7988471555555555,0.17325985711703867,9,0,0
121,nb2TestingBlock,2,0,left,1,0.6787887,left,0.7988471555555555,0.17325985711703867,9,0,0
121,nb2TestingBlock,2,3,right,0,0.6705297,left,0.7988471555555555,0.17325985711703867,9,0,0
121,nb2TestingBlock,13,4,right,1,0.7995438,right,0.7988471555555555,0.17325985711703867,9,0,0
121,nb2TestingBlock,2,0,left,1,0.7746364,left,0.7988471555555555,0.17325985711703867,9,0,0
121,nb2TestingBlock,13,0,left,1,0.7548497,left,0.7988471555555555,0.17325985711703867,9,0,0
121,nb2TestingBlock,14,3,right,1,0.6559337,right,0.7988471555555555,0.17325985711703867,9,0,0
121,nb2TestingBlock,13,0,left,1,0.7147374,left,0.7988471555555555,0.17325985711703867,9,0,0
121,nb2TestingBlock,12,2,right,1,0.7108509,right,0.7988471555555555,0.17325985711703867,9,0,0
121,nb2TestingBlock,12,1,right,0,0.6143239,left,0.7988471555555555,0.17325985711703867,9,0,0
121,nb2TestingBlock,1,4,right,1,0.7873439,right,0.7988471555555555,0.17325985711703867,9,0,0
121,nb2TestingBlock,12,0,left,1,0.8294526,left,0.7988471555555555,0.17325985711703867,9,0,0
121,nb2TestingBlock,0,1,right,1,0.5801583,right,0.7988471555555555,0.17325985711703867,9,0,0
121,nb2TestingBlock,12,0,left,1,0.5800854,left,0.7988471555555555,0.17325985711703867,9,0,0
121,nb2TestingBlock,0,0,left,1,1.1560256,left,0.7988471555555555,0.17325985711703867,9,0,0
121,nb2TestingBlock,12,0,left,1,0.7129447,left,0.7988471555555555,0.17325985711703867,9,0,0
122,nb1TestingBlock,11,0,left,1,0.6222029,left,0.7604621233333333,0.21530065250286104,3,0,0
122,nb1TestingBlock,7,4,right,1,0.9691078,right,0.7604621233333333,0.21530065250286104,3,0,0
122,nb1TestingBlock,8,1,right,1,0.8786415,right,0.7604621233333333,0.21530065250286104,3,0,0
122,nb1TestingBlock,12,4,right,1,0.7713884,right,0.7604621233333333,0.21530065250286104,3,0,0
122,nb1TestingBlock,12,0,left,1,0.6867061,left,0.7604621233333333,0.21530065250286104,3,0,0
122,nb1TestingBlock,0,3,right,1,0.6770798,right,0.7604621233333333,0.21530065250286104,3,0,0
122,nb1TestingBlock,0,0,left,1,0.8123347,left,0.7604621233333333,0.21530065250286104,3,0,0
122,nb1TestingBlock,1,1,right,1,1.3991416,right,0.7604621233333333,0.21530065250286104,3,0,0
122,nb1TestingBlock,3,2,right,0,0.7583743,left,0.7604621233333333,0.21530065250286104,3,0,0
122,nb1TestingBlock,2,1,right,0,0.7484414,left,0.7604621233333333,0.21530065250286104,3,0,0
122,nb1TestingBlock,6,4,right,1,0.7859401,right,0.7604621233333333,0.21530065250286104,3,0,0
122,nb1TestingBlock,6,0,left,1,0.5046,left,0.7604621233333333,0.21530065250286104,3,0,0
122,nb1TestingBlock,6,0,left,1,0.6106212,left,0.7604621233333333,0.21530065250286104,3,0,0
122,nb1TestingBlock,10,4,right,1,0.6068594,right,0.7604621233333333,0.21530065250286104,3,0,0
122,nb1TestingBlock,8,2,right,1,0.629294,right,0.7604621233333333,0.21530065250286104,3,0,0
122,nb1TestingBlock,8,0,left,1,0.8416575,left,0.7604621233333333,0.21530065250286104,3,0,0
122,nb1TestingBlock,6,2,right,1,0.6778241,right,0.7604621233333333,0.21530065250286104,3,0,0
122,nb1TestingBlock,9,3,right,1,0.6184105,right,0.7604621233333333,0.21530065250286104,3,0,0
122,nb1TestingBlock,9,0,left,1,0.6085687,left,0.7604621233333333,0.21530065250286104,3,0,0
122,nb1TestingBlock,5,4,right,1,0.5972188,right,0.7604621233333333,0.21530065250286104,3,0,0
122,nb1TestingBlock,4,1,right,0,0.8435041,left,0.7604621233333333,0.21530065250286104,3,0,0
122,nb1TestingBlock,4,0,left,1,0.7411421,left,0.7604621233333333,0.21530065250286104,3,0,0
122,nb1TestingBlock,2,2,right,1,0.6579967,right,0.7604621233333333,0.21530065250286104,3,0,0
122,nb1TestingBlock,14,3,right,1,0.8065604,right,0.7604621233333333,0.21530065250286104,3,0,0
122,nb1TestingBlock,11,3,right,1,0.7654522,right,0.7604621233333333,0.21530065250286104,3,0,0
122,nb1TestingBlock,13,2,right,1,1.509006,right,0.7604621233333333,0.21530065250286104,3,1,0
122,nb1TestingBlock,13,0,left,1,0.7735435,left,0.7604621233333333,0.21530065250286104,3,0,0
122,nb1TestingBlock,14,1,right,1,0.6885072,right,0.7604621233333333,0.21530065250286104,3,0,0
122,nb1TestingBlock,2,3,right,1,0.5805001,right,0.7604621233333333,0.21530065250286104,3,0,0
122,nb1TestingBlock,2,0,left,1,0.6432386,left,0.7604621233333333,0.21530065250286104,3,0,0
122,nb2TestingBlock,3,0,left,1,0.9685611,left,0.7734231622222222,0.2591829877561461,9,0,0
122,nb2TestingBlock,9,3,right,1,0.848681,right,0.7734231622222222,0.2591829877561461,9,0,0
122,nb2TestingBlock,2,1,right,1,1.1452056,right,0.7734231622222222,0.2591829877561461,9,0,0
122,nb2TestingBlock,9,0,left,1,0.6000484,left,0.7734231622222222,0.2591829877561461,9,0,0
122,nb2TestingBlock,4,2,right,1,0.6493412,right,0.7734231622222222,0.2591829877561461,9,0,0
122,nb2TestingBlock,10,1,right,1,0.9609248,right,0.7734231622222222,0.2591829877561461,9,0,0
122,nb2TestingBlock,6,2,right,1,0.8331193,right,0.7734231622222222,0.2591829877561461,9,0,0
122,nb2TestingBlock,6,4,right,1,1.7911005,right,0.7734231622222222,0.2591829877561461,9,1,0
122,nb2TestingBlock,7,1,right,0,0.857368,left,0.7734231622222222,0.2591829877561461,9,0,0
122,nb2TestingBlock,6,0,left,1,0.9147349,left,0.7734231622222222,0.2591829877561461,9,0,0
122,nb2TestingBlock,5,2,right,0,0.7348504,left,0.7734231622222222,0.2591829877561461,9,0,0
122,nb2TestingBlock,10,4,right,1,0.6672287,right,0.7734231622222222,0.2591829877561461,9,0,0
122,nb2TestingBlock,2,3,right,1,0.8371452,right,0.7734231622222222,0.2591829877561461,9,0,0
122,nb2TestingBlock,13,3,right,1,0.3985509,right,0.7734231622222222,0.2591829877561461,9,0,0
122,nb2TestingBlock,3,1,right,0,0.7742709,left,0.7734231622222222,0.2591829877561461,9,0,0
122,nb2TestingBlock,1,3,right,1,0.7546828,right,0.7734231622222222,0.2591829877561461,9,0,0
122,nb2TestingBlock,3,0,left,0,0.7669453,right,0.7734231622222222,0.2591829877561461,9,0,0
122,nb2TestingBlock,1,0,left,1,0.936502,left,0.7734231622222222,0.2591829877561461,9,0,0
122,nb2TestingBlock,4,1,right,1,0.7234358,right,0.7734231622222222,0.2591829877561461,9,0,0
122,nb2TestingBlock,1,0,left,1,0.8166664,left,0.7734231622222222,0.2591829877561461,9,0,0
122,nb2TestingBlock,4,0,left,0,0.6034863,right,0.7734231622222222,0.2591829877561461,9,0,0
122,nb2TestingBlock,5,4,right,1,0.4713627,right,0.7734231622222222,0.2591829877561461,9,0,0
122,nb2TestingBlock,0,4,right,0,0.695229,left,0.7734231622222222,0.2591829877561461,9,0,0
122,nb2TestingBlock,5,0,left,0,0.5466049,right,0.7734231622222222,0.2591829877561461,9,0,0
122,nb2TestingBlock,3,3,right,0,0.6212945,left,0.7734231622222222,0.2591829877561461,9,0,0
122,nb2TestingBlock,1,4,right,1,0.6046307,right,0.7734231622222222,0.2591829877561461,9,0,0
122,nb2TestingBlock,1,2,right,0,0.5042186,left,0.7734231622222222,0.2591829877561461,9,0,0
122,nb2TestingBlock,12,4,right,1,0.5652262,right,0.7734231622222222,0.2591829877561461,9,0,0
122,nb2TestingBlock,14,2,right,1,1.0572831,right,0.7734231622222222,0.2591829877561461,9,0,0
122,nb2TestingBlock,11,1,right,0,0.5853531,left,0.7734231622222222,0.2591829877561461,9,0,0
122,nb2TestingBlock,14,0,left,1,0.5967435,left,0.7734231622222222,0.2591829877561461,9,0,0
122,nb2TestingBlock,14,3,right,0,0.5428106,left,0.7734231622222222,0.2591829877561461,9,0,0
122,nb2TestingBlock,12,2,right,1,0.3797866,right,0.7734231622222222,0.2591829877561461,9,0,0
122,nb2TestingBlock,0,1,right,0,0.5715948,left,0.7734231622222222,0.2591829877561461,9,0,0
122,nb2TestingBlock,8,4,right,1,0.6347338,right,0.7734231622222222,0.2591829877561461,9,0,0
122,nb2TestingBlock,0,0,left,1,0.8383711,left,0.7734231622222222,0.2591829877561461,9,0,0
122,nb2TestingBlock,11,3,right,1,0.9422416,right,0.7734231622222222,0.2591829877561461,9,0,0
122,nb2TestingBlock,13,2,right,1,1.4052403,right,0.7734231622222222,0.2591829877561461,9,0,0
122,nb2TestingBlock,11,0,left,1,0.5698157,left,0.7734231622222222,0.2591829877561461,9,0,0
122,nb2TestingBlock,11,2,right,0,0.8109675,left,0.7734231622222222,0.2591829877561461,9,0,0
122,nb2TestingBlock,11,0,left,1,0.7952717,left,0.7734231622222222,0.2591829877561461,9,0,0
122,nb2TestingBlock,8,3,right,1,0.454587,right,0.7734231622222222,0.2591829877561461,9,0,0
122,nb2TestingBlock,9,2,right,1,0.898977,right,0.7734231622222222,0.2591829877561461,9,0,0
122,nb2TestingBlock,9,1,right,1,0.698903,right,0.7734231622222222,0.2591829877561461,9,0,0
122,nb2TestingBlock,7,2,right,1,1.2507422,right,0.7734231622222222,0.2591829877561461,9,0,0
122,nb2TestingBlock,9,0,left,1,0.6006751,left,0.7734231622222222,0.2591829877561461,9,0,0
122,nb2TestingBlock,7,0,left,0,0.6648361,right,0.7734231622222222,0.2591829877561461,9,0,0
122,nb2TestingBlock,8,1,right,1,0.7887907,right,0.7734231622222222,0.2591829877561461,9,0,0
122,nb2TestingBlock,3,4,right,1,0.9077986,right,0.7734231622222222,0.2591829877561461,9,0,0
122,nb2TestingBlock,8,0,left,1,0.6925304,left,0.7734231622222222,0.2591829877561461,9,0,0
122,nb2TestingBlock,6,3,right,1,0.5626395,right,0.7734231622222222,0.2591829877561461,9,0,0
122,nb2TestingBlock,10,2,right,0,0.3679001,left,0.7734231622222222,0.2591829877561461,9,0,0
122,nb2TestingBlock,6,0,left,0,0.7131718,right,0.7734231622222222,0.2591829877561461,9,0,0
122,nb2TestingBlock,10,0,left,1,0.5346405,left,0.7734231622222222,0.2591829877561461,9,0,0
122,nb2TestingBlock,5,1,right,0,0.3708706,left,0.7734231622222222,0.2591829877561461,9,0,0
122,nb2TestingBlock,10,0,left,1,0.8029845,left,0.7734231622222222,0.2591829877561461,9,0,0
122,nb2TestingBlock,5,0,left,1,0.9610931,left,0.7734231622222222,0.2591829877561461,9,0,0
122,nb2TestingBlock,7,3,right,1,1.0407477,right,0.7734231622222222,0.2591829877561461,9,0,0
122,nb2TestingBlock,3,2,right,0,0.792913,left,0.7734231622222222,0.2591829877561461,9,0,0
122,nb2TestingBlock,10,3,right,1,1.8951968,right,0.7734231622222222,0.2591829877561461,9,1,0
122,nb2TestingBlock,7,4,right,0,0.7922786,left,0.7734231622222222,0.2591829877561461,9,0,0
122,nb2TestingBlock,14,4,right,1,0.5831416,right,0.7734231622222222,0.2591829877561461,9,0,0
122,nb2TestingBlock,6,1,right,1,0.9325576,right,0.7734231622222222,0.2591829877561461,9,0,0
122,nb2TestingBlock,14,0,left,1,0.5945554,left,0.7734231622222222,0.2591829877561461,9,0,0
122,nb2TestingBlock,2,4,right,1,0.6709722,right,0.7734231622222222,0.2591829877561461,9,0,0
122,nb2TestingBlock,13,1,right,1,0.6862684,right,0.7734231622222222,0.2591829877561461,9,0,0
122,nb2TestingBlock,1,1,right,0,0.6483529,left,0.7734231622222222,0.2591829877561461,9,0,0
122,nb2TestingBlock,0,2,right,1,1.0893226,right,0.7734231622222222,0.2591829877561461,9,0,0
122,nb2TestingBlock,4,3,right,1,0.7458153,right,0.7734231622222222,0.2591829877561461,9,0,0
122,nb2TestingBlock,4,4,right,0,0.8209663,left,0.7734231622222222,0.2591829877561461,9,0,0
122,nb2TestingBlock,8,4,right,1,0.9805669,right,0.7734231622222222,0.2591829877561461,9,0,0
122,nb2TestingBlock,4,0,left,1,0.9003497,left,0.7734231622222222,0.2591829877561461,9,0,0
122,nb2TestingBlock,8,0,left,1,0.9486899,left,0.7734231622222222,0.2591829877561461,9,0,0
122,nb2TestingBlock,2,2,right,1,0.748916,right,0.7734231622222222,0.2591829877561461,9,0,0
122,nb2TestingBlock,5,3,right,1,0.7249847,right,0.7734231622222222,0.2591829877561461,9,0,0
122,nb2TestingBlock,2,0,left,1,0.5923849,left,0.7734231622222222,0.2591829877561461,9,0,0
122,nb2TestingBlock,2,3,right,0,0.6378449,left,0.7734231622222222,0.2591829877561461,9,0,0
122,nb2TestingBlock,13,4,right,1,0.9347469,right,0.7734231622222222,0.2591829877561461,9,0,0
122,nb2TestingBlock,2,0,left,1,0.8508871,left,0.7734231622222222,0.2591829877561461,9,0,0
122,nb2TestingBlock,13,0,left,0,1.170984,right,0.7734231622222222,0.2591829877561461,9,0,0
122,nb2TestingBlock,14,3,right,0,0.6165563,left,0.7734231622222222,0.2591829877561461,9,0,0
122,nb2TestingBlock,13,0,left,0,0.6427719,right,0.7734231622222222,0.2591829877561461,9,0,0
122,nb2TestingBlock,12,2,right,1,1.1527129,right,0.7734231622222222,0.2591829877561461,9,0,0
122,nb2TestingBlock,12,1,right,0,0.6324969,left,0.7734231622222222,0.2591829877561461,9,0,0
122,nb2TestingBlock,1,4,right,0,0.8865418,left,0.7734231622222222,0.2591829877561461,9,0,0
122,nb2TestingBlock,12,0,left,1,0.6408728,left,0.7734231622222222,0.2591829877561461,9,0,0
122,nb2TestingBlock,0,1,right,1,0.5287695,right,0.7734231622222222,0.2591829877561461,9,0,0
122,nb2TestingBlock,12,0,left,1,1.0028815,left,0.7734231622222222,0.2591829877561461,9,0,0
122,nb2TestingBlock,0,0,left,0,0.4931554,right,0.7734231622222222,0.2591829877561461,9,0,0
122,nb2TestingBlock,12,0,left,1,0.6351125,left,0.7734231622222222,0.2591829877561461,9,0,0
123,nb1TestingBlock,11,0,left,1,0.6707199,left,0.78493885,0.3163370969748468,3,0,0
123,nb1TestingBlock,7,4,right,1,1.0526185,right,0.78493885,0.3163370969748468,3,0,0
123,nb1TestingBlock,8,1,right,1,0.9647805,right,0.78493885,0.3163370969748468,3,0,0
123,nb1TestingBlock,12,4,right,1,0.7661319,right,0.78493885,0.3163370969748468,3,0,0
123,nb1TestingBlock,12,0,left,1,0.8862191,left,0.78493885,0.3163370969748468,3,0,0
123,nb1TestingBlock,0,3,right,1,0.5895502,right,0.78493885,0.3163370969748468,3,0,0
123,nb1TestingBlock,0,0,left,0,0.5128175,right,0.78493885,0.3163370969748468,3,0,0
123,nb1TestingBlock,1,1,right,1,1.9152607,right,0.78493885,0.3163370969748468,3,1,0
123,nb1TestingBlock,3,2,right,1,1.2390624,right,0.78493885,0.3163370969748468,3,0,0
123,nb1TestingBlock,2,1,right,1,1.0787293,right,0.78493885,0.3163370969748468,3,0,0
123,nb1TestingBlock,6,4,right,1,0.6950953,right,0.78493885,0.3163370969748468,3,0,0
123,nb1TestingBlock,6,0,left,1,0.4149863,left,0.78493885,0.3163370969748468,3,0,0
123,nb1TestingBlock,6,0,left,0,0.631775,right,0.78493885,0.3163370969748468,3,0,0
123,nb1TestingBlock,10,4,right,1,0.9491356,right,0.78493885,0.3163370969748468,3,0,0
123,nb1TestingBlock,8,2,right,1,0.5057709,right,0.78493885,0.3163370969748468,3,0,0
123,nb1TestingBlock,8,0,left,0,0.9144415,right,0.78493885,0.3163370969748468,3,0,0
123,nb1TestingBlock,6,2,right,1,1.1004525,right,0.78493885,0.3163370969748468,3,0,0
123,nb1TestingBlock,9,3,right,1,0.4853519,right,0.78493885,0.3163370969748468,3,0,0
123,nb1TestingBlock,9,0,left,1,0.5243607,left,0.78493885,0.3163370969748468,3,0,0
123,nb1TestingBlock,5,4,right,1,0.7733633,right,0.78493885,0.3163370969748468,3,0,0
123,nb1TestingBlock,4,1,right,0,0.4947854,left,0.78493885,0.3163370969748468,3,0,0
123,nb1TestingBlock,4,0,left,1,0.9828628,left,0.78493885,0.3163370969748468,3,0,0
123,nb1TestingBlock,2,2,right,1,0.8828124,right,0.78493885,0.3163370969748468,3,0,0
123,nb1TestingBlock,14,3,right,1,0.5108589,right,0.78493885,0.3163370969748468,3,0,0
123,nb1TestingBlock,11,3,right,1,0.6509789,right,0.78493885,0.3163370969748468,3,0,0
123,nb1TestingBlock,13,2,right,1,1.0622518,right,0.78493885,0.3163370969748468,3,0,0
123,nb1TestingBlock,13,0,left,1,0.4051552,left,0.78493885,0.3163370969748468,3,0,0
123,nb1TestingBlock,14,1,right,1,0.6229717,right,0.78493885,0.3163370969748468,3,0,0
123,nb1TestingBlock,2,3,right,1,0.5213825,right,0.78493885,0.3163370969748468,3,0,0
123,nb1TestingBlock,2,0,left,1,0.7434829,left,0.78493885,0.3163370969748468,3,0,0
123,nb2TestingBlock,3,0,left,1,0.9202068,left,0.8336244755555555,0.5797761141147028,9,0,0
123,nb2TestingBlock,9,3,right,1,3.9760774,right,0.8336244755555555,0.5797761141147028,9,1,0
123,nb2TestingBlock,2,1,right,1,2.856356,right,0.8336244755555555,0.5797761141147028,9,1,0
123,nb2TestingBlock,9,0,left,1,1.7697137,left,0.8336244755555555,0.5797761141147028,9,0,0
123,nb2TestingBlock,4,2,right,1,1.4337515,right,0.8336244755555555,0.5797761141147028,9,0,0
123,nb2TestingBlock,10,1,right,1,2.1377892,right,0.8336244755555555,0.5797761141147028,9,0,0
123,nb2TestingBlock,6,2,right,1,0.9204522,right,0.8336244755555555,0.5797761141147028,9,0,0
123,nb2TestingBlock,6,4,right,0,1.1762148,left,0.8336244755555555,0.5797761141147028,9,0,0
123,nb2TestingBlock,7,1,right,1,1.4333406,right,0.8336244755555555,0.5797761141147028,9,0,0
123,nb2TestingBlock,6,0,left,1,0.8578234,left,0.8336244755555555,0.5797761141147028,9,0,0
123,nb2TestingBlock,5,2,right,1,0.8507028,right,0.8336244755555555,0.5797761141147028,9,0,0
123,nb2TestingBlock,10,4,right,0,2.0347406,left,0.8336244755555555,0.5797761141147028,9,0,0
123,nb2TestingBlock,2,3,right,1,0.8896924,right,0.8336244755555555,0.5797761141147028,9,0,0
123,nb2TestingBlock,13,3,right,1,1.3608059,right,0.8336244755555555,0.5797761141147028,9,0,0
123,nb2TestingBlock,3,1,right,1,0.8570915,right,0.8336244755555555,0.5797761141147028,9,0,0
123,nb2TestingBlock,1,3,right,1,1.3315467,right,0.8336244755555555,0.5797761141147028,9,0,0
123,nb2TestingBlock,3,0,left,0,1.1611856,right,0.8336244755555555,0.5797761141147028,9,0,0
123,nb2TestingBlock,1,0,left,1,1.3698418,left,0.8336244755555555,0.5797761141147028,9,0,0
123,nb2TestingBlock,4,1,right,1,0.8734659,right,0.8336244755555555,0.5797761141147028,9,0,0
123,nb2TestingBlock,1,0,left,0,0.9986299,right,0.8336244755555555,0.5797761141147028,9,0,0
123,nb2TestingBlock,4,0,left,1,0.5588313,left,0.8336244755555555,0.5797761141147028,9,0,0
123,nb2TestingBlock,5,4,right,1,2.0865193,right,0.8336244755555555,0.5797761141147028,9,0,0
123,nb2TestingBlock,0,4,right,0,1.2079724,left,0.8336244755555555,0.5797761141147028,9,0,0
123,nb2TestingBlock,5,0,left,0,0.744696,right,0.8336244755555555,0.5797761141147028,9,0,0
123,nb2TestingBlock,3,3,right,1,0.6130403,right,0.8336244755555555,0.5797761141147028,9,0,0
123,nb2TestingBlock,1,4,right,1,0.9952287,right,0.8336244755555555,0.5797761141147028,9,0,0
123,nb2TestingBlock,1,2,right,0,0.8940213,left,0.8336244755555555,0.5797761141147028,9,0,0
123,nb2TestingBlock,12,4,right,1,1.4032987,right,0.8336244755555555,0.5797761141147028,9,0,0
123,nb2TestingBlock,14,2,right,0,0.5374355,left,0.8336244755555555,0.5797761141147028,9,0,0
123,nb2TestingBlock,11,1,right,1,0.3068394,right,0.8336244755555555,0.5797761141147028,9,0,0
123,nb2TestingBlock,14,0,left,0,0.6202944,right,0.8336244755555555,0.5797761141147028,9,0,0
123,nb2TestingBlock,14,3,right,0,0.5884514,left,0.8336244755555555,0.5797761141147028,9,0,0
123,nb2TestingBlock,12,2,right,1,0.5167998,right,0.8336244755555555,0.5797761141147028,9,0,0
123,nb2TestingBlock,0,1,right,0,0.3348133,left,0.8336244755555555,0.5797761141147028,9,0,0
123,nb2TestingBlock,8,4,right,1,0.5382242,right,0.8336244755555555,0.5797761141147028,9,0,0
123,nb2TestingBlock,0,0,left,1,0.5949807,left,0.8336244755555555,0.5797761141147028,9,0,0
123,nb2TestingBlock,11,3,right,1,1.5188238,right,0.8336244755555555,0.5797761141147028,9,0,0
123,nb2TestingBlock,13,2,right,1,1.0652189,right,0.8336244755555555,0.5797761141147028,9,0,0
123,nb2TestingBlock,11,0,left,0,1.0170018,right,0.8336244755555555,0.5797761141147028,9,0,0
123,nb2TestingBlock,11,2,right,0,0.6653173,left,0.8336244755555555,0.5797761141147028,9,0,0
123,nb2TestingBlock,11,0,left,0,0.7249368,right,0.8336244755555555,0.5797761141147028,9,0,0
123,nb2TestingBlock,8,3,right,0,0.496904,left,0.8336244755555555,0.5797761141147028,9,0,0
123,nb2TestingBlock,9,2,right,0,0.8424933,left,0.8336244755555555,0.5797761141147028,9,0,0
123,nb2TestingBlock,9,1,right,0,1.1930685,left,0.8336244755555555,0.5797761141147028,9,0,0
123,nb2TestingBlock,7,2,right,1,0.7282279,right,0.8336244755555555,0.5797761141147028,9,0,0
123,nb2TestingBlock,9,0,left,0,0.673271,right,0.8336244755555555,0.5797761141147028,9,0,0
123,nb2TestingBlock,7,0,left,1,0.5105248,left,0.8336244755555555,0.5797761141147028,9,0,0
123,nb2TestingBlock,8,1,right,0,1.2468937,left,0.8336244755555555,0.5797761141147028,9,0,0
123,nb2TestingBlock,3,4,right,1,0.8567802,right,0.8336244755555555,0.5797761141147028,9,0,0
123,nb2TestingBlock,8,0,left,1,1.0102797,left,0.8336244755555555,0.5797761141147028,9,0,0
123,nb2TestingBlock,6,3,right,1,0.7289576,right,0.8336244755555555,0.5797761141147028,9,0,0
123,nb2TestingBlock,10,2,right,1,0.496206,right,0.8336244755555555,0.5797761141147028,9,0,0
123,nb2TestingBlock,6,0,left,0,0.3958017,right,0.8336244755555555,0.5797761141147028,9,0,0
123,nb2TestingBlock,10,0,left,0,0.5023316,right,0.8336244755555555,0.5797761141147028,9,0,0
123,nb2TestingBlock,5,1,right,1,0.5641591,right,0.8336244755555555,0.5797761141147028,9,0,0
123,nb2TestingBlock,10,0,left,1,0.4336323,left,0.8336244755555555,0.5797761141147028,9,0,0
123,nb2TestingBlock,5,0,left,0,0.5915496,right,0.8336244755555555,0.5797761141147028,9,0,0
123,nb2TestingBlock,7,3,right,0,0.3994976,left,0.8336244755555555,0.5797761141147028,9,0,0
123,nb2TestingBlock,3,2,right,0,0.3099449,left,0.8336244755555555,0.5797761141147028,9,0,0
123,nb2TestingBlock,10,3,right,1,1.3825767,right,0.8336244755555555,0.5797761141147028,9,0,0
123,nb2TestingBlock,7,4,right,0,0.8258314,left,0.8336244755555555,0.5797761141147028,9,0,0
123,nb2TestingBlock,14,4,right,1,0.580332,right,0.8336244755555555,0.5797761141147028,9,0,0
123,nb2TestingBlock,6,1,right,0,0.5960553,left,0.8336244755555555,0.5797761141147028,9,0,0
123,nb2TestingBlock,14,0,left,0,0.366962,right,0.8336244755555555,0.5797761141147028,9,0,0
123,nb2TestingBlock,2,4,right,1,0.3120636,right,0.8336244755555555,0.5797761141147028,9,0,0
123,nb2TestingBlock,13,1,right,0,0.6302072,left,0.8336244755555555,0.5797761141147028,9,0,0
123,nb2TestingBlock,1,1,right,1,0.2621397,right,0.8336244755555555,0.5797761141147028,9,0,0
123,nb2TestingBlock,0,2,right,1,0.2448306,right,0.8336244755555555,0.5797761141147028,9,0,0
123,nb2TestingBlock,4,3,right,1,0.752677,right,0.8336244755555555,0.5797761141147028,9,0,0
123,nb2TestingBlock,4,4,right,1,0.6069354,right,0.8336244755555555,0.5797761141147028,9,0,0
123,nb2TestingBlock,8,4,right,0,0.6001545,left,0.8336244755555555,0.5797761141147028,9,0,0
123,nb2TestingBlock,4,0,left,0,0.3774563,right,0.8336244755555555,0.5797761141147028,9,0,0
123,nb2TestingBlock,8,0,left,1,0.2899249,left,0.8336244755555555,0.5797761141147028,9,0,0
123,nb2TestingBlock,2,2,right,1,0.6267701,right,0.8336244755555555,0.5797761141147028,9,0,0
123,nb2TestingBlock,5,3,right,1,0.5565009,right,0.8336244755555555,0.5797761141147028,9,0,0
123,nb2TestingBlock,2,0,left,1,0.5821084,left,0.8336244755555555,0.5797761141147028,9,0,0
123,nb2TestingBlock,2,3,right,1,0.3564328,right,0.8336244755555555,0.5797761141147028,9,0,0
123,nb2TestingBlock,13,4,right,0,0.2707468,left,0.8336244755555555,0.5797761141147028,9,0,0
123,nb2TestingBlock,2,0,left,0,0.4144308,right,0.8336244755555555,0.5797761141147028,9,0,0
123,nb2TestingBlock,13,0,left,0,0.329785,right,0.8336244755555555,0.5797761141147028,9,0,0
123,nb2TestingBlock,14,3,right,1,0.5227615,right,0.8336244755555555,0.5797761141147028,9,0,0
123,nb2TestingBlock,13,0,left,1,0.3127389,left,0.8336244755555555,0.5797761141147028,9,0,0
123,nb2TestingBlock,12,2,right,1,0.3586204,right,0.8336244755555555,0.5797761141147028,9,0,0
123,nb2TestingBlock,12,1,right,0,0.3508086,left,0.8336244755555555,0.5797761141147028,9,0,0
123,nb2TestingBlock,1,4,right,1,0.4465546,right,0.8336244755555555,0.5797761141147028,9,0,0
123,nb2TestingBlock,12,0,left,1,0.56789,left,0.8336244755555555,0.5797761141147028,9,0,0
123,nb2TestingBlock,0,1,right,1,0.5930531,right,0.8336244755555555,0.5797761141147028,9,0,0
123,nb2TestingBlock,12,0,left,1,0.7665305,left,0.8336244755555555,0.5797761141147028,9,0,0
123,nb2TestingBlock,0,0,left,0,0.5362374,right,0.8336244755555555,0.5797761141147028,9,0,0
123,nb2TestingBlock,12,0,left,0,0.8833889,right,0.8336244755555555,0.5797761141147028,9,0,0
124,nb1TestingBlock,11,0,left,1,0.4121895,left,0.61440289,0.15544597337765886,3,0,0
124,nb1TestingBlock,7,4,right,1,0.4873759,right,0.61440289,0.15544597337765886,3,0,0
124,nb1TestingBlock,8,1,right,0,0.6379886,left,0.61440289,0.15544597337765886,3,0,0
124,nb1TestingBlock,12,4,right,1,0.6274559,right,0.61440289,0.15544597337765886,3,0,0
124,nb1TestingBlock,12,0,left,1,0.6502087,left,0.61440289,0.15544597337765886,3,0,0
124,nb1TestingBlock,0,3,right,1,0.423117,right,0.61440289,0.15544597337765886,3,0,0
124,nb1TestingBlock,0,0,left,1,0.5924412,left,0.61440289,0.15544597337765886,3,0,0
124,nb1TestingBlock,1,1,right,1,0.4763491,right,0.61440289,0.15544597337765886,3,0,0
124,nb1TestingBlock,3,2,right,1,0.9475085,right,0.61440289,0.15544597337765886,3,0,0
124,nb1TestingBlock,2,1,right,1,1.0501305,right,0.61440289,0.15544597337765886,3,0,0
124,nb1TestingBlock,6,4,right,1,0.6948499,right,0.61440289,0.15544597337765886,3,0,0
124,nb1TestingBlock,6,0,left,1,0.574974,left,0.61440289,0.15544597337765886,3,0,0
124,nb1TestingBlock,6,0,left,1,0.5361175,left,0.61440289,0.15544597337765886,3,0,0
124,nb1TestingBlock,10,4,right,1,0.5125395,right,0.61440289,0.15544597337765886,3,0,0
124,nb1TestingBlock,8,2,right,1,0.7808494,right,0.61440289,0.15544597337765886,3,0,0
124,nb1TestingBlock,8,0,left,1,0.6330557,left,0.61440289,0.15544597337765886,3,0,0
124,nb1TestingBlock,6,2,right,1,0.628815,right,0.61440289,0.15544597337765886,3,0,0
124,nb1TestingBlock,9,3,right,1,0.4911162,right,0.61440289,0.15544597337765886,3,0,0
124,nb1TestingBlock,9,0,left,1,0.4869911,left,0.61440289,0.15544597337765886,3,0,0
124,nb1TestingBlock,5,4,right,0,0.4772177,left,0.61440289,0.15544597337765886,3,0,0
124,nb1TestingBlock,4,1,right,0,0.8841133,left,0.61440289,0.15544597337765886,3,0,0
124,nb1TestingBlock,4,0,left,1,0.6853957,left,0.61440289,0.15544597337765886,3,0,0
124,nb1TestingBlock,2,2,right,1,0.484993,right,0.61440289,0.15544597337765886,3,0,0
124,nb1TestingBlock,14,3,right,1,0.6539664,right,0.61440289,0.15544597337765886,3,0,0
124,nb1TestingBlock,11,3,right,0,0.3768814,left,0.61440289,0.15544597337765886,3,0,0
124,nb1TestingBlock,13,2,right,1,0.5408206,right,0.61440289,0.15544597337765886,3,0,0
124,nb1TestingBlock,13,0,left,1,0.7133498,left,0.61440289,0.15544597337765886,3,0,0
124,nb1TestingBlock,14,1,right,1,0.660345,right,0.61440289,0.15544597337765886,3,0,0
124,nb1TestingBlock,2,3,right,1,0.7207012,right,0.61440289,0.15544597337765886,3,0,0
124,nb1TestingBlock,2,0,left,1,0.5902294,left,0.61440289,0.15544597337765886,3,0,0
124,nb2TestingBlock,3,0,left,0,0.34498,right,0.9778669766666667,0.7007215489931126,9,0,0
124,nb2TestingBlock,9,3,right,1,6.292719,right,0.9778669766666667,0.7007215489931126,9,1,0
124,nb2TestingBlock,2,1,right,1,2.3612918,right,0.9778669766666667,0.7007215489931126,9,0,0
124,nb2TestingBlock,9,0,left,1,0.8247784,left,0.9778669766666667,0.7007215489931126,9,0,0
124,nb2TestingBlock,4,2,right,1,1.6213593,right,0.9778669766666667,0.7007215489931126,9,0,0
124,nb2TestingBlock,10,1,right,1,1.3524635,right,0.9778669766666667,0.7007215489931126,9,0,0
124,nb2TestingBlock,6,2,right,1,0.6974062,right,0.9778669766666667,0.7007215489931126,9,0,0
124,nb2TestingBlock,6,4,right,0,0.6907324,left,0.9778669766666667,0.7007215489931126,9,0,0
124,nb2TestingBlock,7,1,right,1,2.0986134,right,0.9778669766666667,0.7007215489931126,9,0,0
124,nb2TestingBlock,6,0,left,1,0.7773676,left,0.9778669766666667,0.7007215489931126,9,0,0
124,nb2TestingBlock,5,2,right,1,2.8030787,right,0.9778669766666667,0.7007215489931126,9,0,0
124,nb2TestingBlock,10,4,right,1,1.0027115,right,0.9778669766666667,0.7007215489931126,9,0,0
124,nb2TestingBlock,2,3,right,1,1.1699228,right,0.9778669766666667,0.7007215489931126,9,0,0
124,nb2TestingBlock,13,3,right,1,0.9684607,right,0.9778669766666667,0.7007215489931126,9,0,0
124,nb2TestingBlock,3,1,right,1,0.7689738,right,0.9778669766666667,0.7007215489931126,9,0,0
124,nb2TestingBlock,1,3,right,1,0.7132351,right,0.9778669766666667,0.7007215489931126,9,0,0
124,nb2TestingBlock,3,0,left,1,1.3828561,left,0.9778669766666667,0.7007215489931126,9,0,0
124,nb2TestingBlock,1,0,left,0,1.3366417,right,0.9778669766666667,0.7007215489931126,9,0,0
124,nb2TestingBlock,4,1,right,0,1.2252651,left,0.9778669766666667,0.7007215489931126,9,0,0
124,nb2TestingBlock,1,0,left,0,0.8574023,right,0.9778669766666667,0.7007215489931126,9,0,0
124,nb2TestingBlock,4,0,left,1,1.0114264,left,0.9778669766666667,0.7007215489931126,9,0,0
124,nb2TestingBlock,5,4,right,1,1.0487449,right,0.9778669766666667,0.7007215489931126,9,0,0
124,nb2TestingBlock,0,4,right,0,0.5368182,left,0.9778669766666667,0.7007215489931126,9,0,0
124,nb2TestingBlock,5,0,left,0,1.3621767,right,0.9778669766666667,0.7007215489931126,9,0,0
124,nb2TestingBlock,3,3,right,1,1.5454256,right,0.9778669766666667,0.7007215489931126,9,0,0
124,nb2TestingBlock,1,4,right,1,2.1364699,right,0.9778669766666667,0.7007215489931126,9,0,0
124,nb2TestingBlock,1,2,right,1,0.9364768,right,0.9778669766666667,0.7007215489931126,9,0,0
124,nb2TestingBlock,12,4,right,1,1.3312347,right,0.9778669766666667,0.7007215489931126,9,0,0
124,nb2TestingBlock,14,2,right,1,0.8885549,right,0.9778669766666667,0.7007215489931126,9,0,0
124,nb2TestingBlock,11,1,right,0,0.8645693,left,0.9778669766666667,0.7007215489931126,9,0,0
124,nb2TestingBlock,14,0,left,1,1.0686005,left,0.9778669766666667,0.7007215489931126,9,0,0
124,nb2TestingBlock,14,3,right,1,0.7286079,right,0.9778669766666667,0.7007215489931126,9,0,0
124,nb2TestingBlock,12,2,right,0,1.0255053,left,0.9778669766666667,0.7007215489931126,9,0,0
124,nb2TestingBlock,0,1,right,1,1.049952,right,0.9778669766666667,0.7007215489931126,9,0,0
124,nb2TestingBlock,8,4,right,1,0.985383,right,0.9778669766666667,0.7007215489931126,9,0,0
124,nb2TestingBlock,0,0,left,1,1.1098184,left,0.9778669766666667,0.7007215489931126,9,0,0
124,nb2TestingBlock,11,3,right,1,1.049531,right,0.9778669766666667,0.7007215489931126,9,0,0
124,nb2TestingBlock,13,2,right,1,1.0029378,right,0.9778669766666667,0.7007215489931126,9,0,0
124,nb2TestingBlock,11,0,left,1,0.6252739,left,0.9778669766666667,0.7007215489931126,9,0,0
124,nb2TestingBlock,11,2,right,0,0.4923387,left,0.9778669766666667,0.7007215489931126,9,0,0
124,nb2TestingBlock,11,0,left,1,0.5544945,left,0.9778669766666667,0.7007215489931126,9,0,0
124,nb2TestingBlock,8,3,right,1,0.5186871,right,0.9778669766666667,0.7007215489931126,9,0,0
124,nb2TestingBlock,9,2,right,1,0.8624161,right,0.9778669766666667,0.7007215489931126,9,0,0
124,nb2TestingBlock,9,1,right,1,1.1810644,right,0.9778669766666667,0.7007215489931126,9,0,0
124,nb2TestingBlock,7,2,right,0,0.5054674,left,0.9778669766666667,0.7007215489931126,9,0,0
124,nb2TestingBlock,9,0,left,0,0.7091793,right,0.9778669766666667,0.7007215489931126,9,0,0
124,nb2TestingBlock,7,0,left,1,0.5250444,left,0.9778669766666667,0.7007215489931126,9,0,0
124,nb2TestingBlock,8,1,right,1,0.6804776,right,0.9778669766666667,0.7007215489931126,9,0,0
124,nb2TestingBlock,3,4,right,1,0.8732054,right,0.9778669766666667,0.7007215489931126,9,0,0
124,nb2TestingBlock,8,0,left,0,0.934635,right,0.9778669766666667,0.7007215489931126,9,0,0
124,nb2TestingBlock,6,3,right,1,0.6911512,right,0.9778669766666667,0.7007215489931126,9,0,0
124,nb2TestingBlock,10,2,right,1,0.6913372,right,0.9778669766666667,0.7007215489931126,9,0,0
124,nb2TestingBlock,6,0,left,1,0.6585443,left,0.9778669766666667,0.7007215489931126,9,0,0
124,nb2TestingBlock,10,0,left,0,1.0674634,right,0.9778669766666667,0.7007215489931126,9,0,0
124,nb2TestingBlock,5,1,right,0,0.6652287,left,0.9778669766666667,0.7007215489931126,9,0,0
124,nb2TestingBlock,10,0,left,0,0.5485697,right,0.9778669766666667,0.7007215489931126,9,0,0
124,nb2TestingBlock,5,0,left,1,0.5249934,left,0.9778669766666667,0.7007215489931126,9,0,0
124,nb2TestingBlock,7,3,right,1,0.7291561,right,0.9778669766666667,0.7007215489931126,9,0,0
124,nb2TestingBlock,3,2,right,0,0.5926513,left,0.9778669766666667,0.7007215489931126,9,0,0
124,nb2TestingBlock,10,3,right,1,0.3185762,right,0.9778669766666667,0.7007215489931126,9,0,0
124,nb2TestingBlock,7,4,right,0,0.8540923,left,0.9778669766666667,0.7007215489931126,9,0,0
124,nb2TestingBlock,14,4,right,1,0.4180794,right,0.9778669766666667,0.7007215489931126,9,0,0
124,nb2TestingBlock,6,1,right,0,0.747362,left,0.9778669766666667,0.7007215489931126,9,0,0
124,nb2TestingBlock,14,0,left,1,1.0133737,left,0.9778669766666667,0.7007215489931126,9,0,0
124,nb2TestingBlock,2,4,right,1,0.5052802,right,0.9778669766666667,0.7007215489931126,9,0,0
124,nb2TestingBlock,13,1,right,1,1.0763466,right,0.9778669766666667,0.7007215489931126,9,0,0
124,nb2TestingBlock,1,1,right,1,0.8414209,right,0.9778669766666667,0.7007215489931126,9,0,0
124,nb2TestingBlock,0,2,right,1,0.7129253,right,0.9778669766666667,0.7007215489931126,9,0,0
124,nb2TestingBlock,4,3,right,0,0.7270854,left,0.9778669766666667,0.7007215489931126,9,0,0
124,nb2TestingBlock,4,4,right,1,0.961386,right,0.9778669766666667,0.7007215489931126,9,0,0
124,nb2TestingBlock,8,4,right,1,0.7207185,right,0.9778669766666667,0.7007215489931126,9,0,0
124,nb2TestingBlock,4,0,left,1,0.6566692,left,0.9778669766666667,0.7007215489931126,9,0,0
124,nb2TestingBlock,8,0,left,0,0.6348299,right,0.9778669766666667,0.7007215489931126,9,0,0
124,nb2TestingBlock,2,2,right,1,1.2551393,right,0.9778669766666667,0.7007215489931126,9,0,0
124,nb2TestingBlock,5,3,right,1,1.0026984,right,0.9778669766666667,0.7007215489931126,9,0,0
124,nb2TestingBlock,2,0,left,1,0.6825138,left,0.9778669766666667,0.7007215489931126,9,0,0
124,nb2TestingBlock,2,3,right,1,0.6807743,right,0.9778669766666667,0.7007215489931126,9,0,0
124,nb2TestingBlock,13,4,right,1,0.8084713,right,0.9778669766666667,0.7007215489931126,9,0,0
124,nb2TestingBlock,2,0,left,1,0.8967407,left,0.9778669766666667,0.7007215489931126,9,0,0
124,nb2TestingBlock,13,0,left,1,0.8912864,left,0.9778669766666667,0.7007215489931126,9,0,0
124,nb2TestingBlock,14,3,right,1,0.8427767,right,0.9778669766666667,0.7007215489931126,9,0,0
124,nb2TestingBlock,13,0,left,1,1.3691679,left,0.9778669766666667,0.7007215489931126,9,0,0
124,nb2TestingBlock,12,2,right,1,0.7612083,right,0.9778669766666667,0.7007215489931126,9,0,0
124,nb2TestingBlock,12,1,right,1,0.9524424,right,0.9778669766666667,0.7007215489931126,9,0,0
124,nb2TestingBlock,1,4,right,1,0.6311125,right,0.9778669766666667,0.7007215489931126,9,0,0
124,nb2TestingBlock,12,0,left,1,0.4715222,left,0.9778669766666667,0.7007215489931126,9,0,0
124,nb2TestingBlock,0,1,right,1,0.6775758,right,0.9778669766666667,0.7007215489931126,9,0,0
124,nb2TestingBlock,12,0,left,0,0.8146255,right,0.9778669766666667,0.7007215489931126,9,0,0
124,nb2TestingBlock,0,0,left,0,0.7312606,right,0.9778669766666667,0.7007215489931126,9,0,0
124,nb2TestingBlock,12,0,left,1,0.7466944,left,0.9778669766666667,0.7007215489931126,9,0,0
125,nb1TestingBlock,11,0,left,1,0.5228845,left,0.7261110666666667,0.15647642127086583,3,0,0
125,nb1TestingBlock,7,4,right,1,0.5980927,right,0.7261110666666667,0.15647642127086583,3,0,0
125,nb1TestingBlock,8,1,right,1,0.9066904,right,0.7261110666666667,0.15647642127086583,3,0,0
125,nb1TestingBlock,12,4,right,1,0.8483206,right,0.7261110666666667,0.15647642127086583,3,0,0
125,nb1TestingBlock,12,0,left,1,0.8064118,left,0.7261110666666667,0.15647642127086583,3,0,0
125,nb1TestingBlock,0,3,right,1,0.6686758,right,0.7261110666666667,0.15647642127086583,3,0,0
125,nb1TestingBlock,0,0,left,1,0.785392,left,0.7261110666666667,0.15647642127086583,3,0,0
125,nb1TestingBlock,1,1,right,1,0.7621673,right,0.7261110666666667,0.15647642127086583,3,0,0
125,nb1TestingBlock,3,2,right,1,0.9662297,right,0.7261110666666667,0.15647642127086583,3,0,0
125,nb1TestingBlock,2,1,right,0,0.7182297,left,0.7261110666666667,0.15647642127086583,3,0,0
125,nb1TestingBlock,6,4,right,1,0.9638494,right,0.7261110666666667,0.15647642127086583,3,0,0
125,nb1TestingBlock,6,0,left,1,0.5570863,left,0.7261110666666667,0.15647642127086583,3,0,0
125,nb1TestingBlock,6,0,left,0,0.5452239,right,0.7261110666666667,0.15647642127086583,3,0,0
125,nb1TestingBlock,10,4,right,1,0.9391061,right,0.7261110666666667,0.15647642127086583,3,0,0
125,nb1TestingBlock,8,2,right,1,0.6881484,right,0.7261110666666667,0.15647642127086583,3,0,0
125,nb1TestingBlock,8,0,left,1,0.5810174,left,0.7261110666666667,0.15647642127086583,3,0,0
125,nb1TestingBlock,6,2,right,1,0.5933538,right,0.7261110666666667,0.15647642127086583,3,0,0
125,nb1TestingBlock,9,3,right,1,0.6040929,right,0.7261110666666667,0.15647642127086583,3,0,0
125,nb1TestingBlock,9,0,left,1,0.5803835,left,0.7261110666666667,0.15647642127086583,3,0,0
125,nb1TestingBlock,5,4,right,1,0.5459004,right,0.7261110666666667,0.15647642127086583,3,0,0
125,nb1TestingBlock,4,1,right,1,0.857817,right,0.7261110666666667,0.15647642127086583,3,0,0
125,nb1TestingBlock,4,0,left,1,0.7838375,left,0.7261110666666667,0.15647642127086583,3,0,0
125,nb1TestingBlock,2,2,right,1,0.8892587,right,0.7261110666666667,0.15647642127086583,3,0,0
125,nb1TestingBlock,14,3,right,1,1.0532708,right,0.7261110666666667,0.15647642127086583,3,0,0
125,nb1TestingBlock,11,3,right,1,0.9018232,right,0.7261110666666667,0.15647642127086583,3,0,0
125,nb1TestingBlock,13,2,right,0,0.5943042,left,0.7261110666666667,0.15647642127086583,3,0,0
125,nb1TestingBlock,13,0,left,1,0.5234206,left,0.7261110666666667,0.15647642127086583,3,0,0
125,nb1TestingBlock,14,1,right,1,0.6946288,right,0.7261110666666667,0.15647642127086583,3,0,0
125,nb1TestingBlock,2,3,right,1,0.7017242,right,0.7261110666666667,0.15647642127086583,3,0,0
125,nb1TestingBlock,2,0,left,1,0.6019904,left,0.7261110666666667,0.15647642127086583,3,0,0
125,nb2TestingBlock,3,0,left,1,1.0487981,left,0.7869221222222222,0.27858516261334887,9,0,0
125,nb2TestingBlock,9,3,right,1,0.7292279,right,0.7869221222222222,0.27858516261334887,9,0,0
125,nb2TestingBlock,2,1,right,1,0.8175712,right,0.7869221222222222,0.27858516261334887,9,0,0
125,nb2TestingBlock,9,0,left,1,0.6343559,left,0.7869221222222222,0.27858516261334887,9,0,0
125,nb2TestingBlock,4,2,right,1,0.8711337,right,0.7869221222222222,0.27858516261334887,9,0,0
125,nb2TestingBlock,10,1,right,0,0.6305989,left,0.7869221222222222,0.27858516261334887,9,0,0
125,nb2TestingBlock,6,2,right,1,0.8867823,right,0.7869221222222222,0.27858516261334887,9,0,0
125,nb2TestingBlock,6,4,right,0,0.9282447,left,0.7869221222222222,0.27858516261334887,9,0,0
125,nb2TestingBlock,7,1,right,1,0.8727471,right,0.7869221222222222,0.27858516261334887,9,0,0
125,nb2TestingBlock,6,0,left,1,0.9665541,left,0.7869221222222222,0.27858516261334887,9,0,0
125,nb2TestingBlock,5,2,right,1,0.8491373,right,0.7869221222222222,0.27858516261334887,9,0,0
125,nb2TestingBlock,10,4,right,1,0.8240617,right,0.7869221222222222,0.27858516261334887,9,0,0
125,nb2TestingBlock,2,3,right,1,1.0134034,right,0.7869221222222222,0.27858516261334887,9,0,0
125,nb2TestingBlock,13,3,right,1,0.8716495,right,0.7869221222222222,0.27858516261334887,9,0,0
125,nb2TestingBlock,3,1,right,0,0.6147409,left,0.7869221222222222,0.27858516261334887,9,0,0
125,nb2TestingBlock,1,3,right,1,0.8021292,right,0.7869221222222222,0.27858516261334887,9,0,0
125,nb2TestingBlock,3,0,left,0,0.768869,right,0.7869221222222222,0.27858516261334887,9,0,0
125,nb2TestingBlock,1,0,left,0,0.9050719,right,0.7869221222222222,0.27858516261334887,9,0,0
125,nb2TestingBlock,4,1,right,1,0.5650917,right,0.7869221222222222,0.27858516261334887,9,0,0
125,nb2TestingBlock,1,0,left,0,3.0565975,right,0.7869221222222222,0.27858516261334887,9,1,0
125,nb2TestingBlock,4,0,left,0,0.8735751,right,0.7869221222222222,0.27858516261334887,9,0,0
125,nb2TestingBlock,5,4,right,0,1.1899747,left,0.7869221222222222,0.27858516261334887,9,0,0
125,nb2TestingBlock,0,4,right,1,0.8574268,right,0.7869221222222222,0.27858516261334887,9,0,0
125,nb2TestingBlock,5,0,left,0,0.6903553,right,0.7869221222222222,0.27858516261334887,9,0,0
125,nb2TestingBlock,3,3,right,1,0.7715879,right,0.7869221222222222,0.27858516261334887,9,0,0
125,nb2TestingBlock,1,4,right,1,0.8185887,right,0.7869221222222222,0.27858516261334887,9,0,0
125,nb2TestingBlock,1,2,right,0,0.554219,left,0.7869221222222222,0.27858516261334887,9,0,0
125,nb2TestingBlock,12,4,right,1,0.8698464,right,0.7869221222222222,0.27858516261334887,9,0,0
125,nb2TestingBlock,14,2,right,0,0.6687051,left,0.7869221222222222,0.27858516261334887,9,0,0
125,nb2TestingBlock,11,1,right,0,0.7082628,left,0.7869221222222222,0.27858516261334887,9,0,0
125,nb2TestingBlock,14,0,left,1,0.6525088,left,0.7869221222222222,0.27858516261334887,9,0,0
125,nb2TestingBlock,14,3,right,0,0.6185084,left,0.7869221222222222,0.27858516261334887,9,0,0
125,nb2TestingBlock,12,2,right,0,0.6097802,left,0.7869221222222222,0.27858516261334887,9,0,0
125,nb2TestingBlock,0,1,right,1,1.1448979,right,0.7869221222222222,0.27858516261334887,9,0,0
125,nb2TestingBlock,8,4,right,1,0.8248871,right,0.7869221222222222,0.27858516261334887,9,0,0
125,nb2TestingBlock,0,0,left,1,0.6605761,left,0.7869221222222222,0.27858516261334887,9,0,0
125,nb2TestingBlock,11,3,right,0,0.6605285,left,0.7869221222222222,0.27858516261334887,9,0,0
125,nb2TestingBlock,13,2,right,0,0.8527937,left,0.7869221222222222,0.27858516261334887,9,0,0
125,nb2TestingBlock,11,0,left,0,0.8026001,right,0.7869221222222222,0.27858516261334887,9,0,0
125,nb2TestingBlock,11,2,right,0,0.7842455,left,0.7869221222222222,0.27858516261334887,9,0,0
125,nb2TestingBlock,11,0,left,1,0.5733155,left,0.7869221222222222,0.27858516261334887,9,0,0
125,nb2TestingBlock,8,3,right,1,0.6985168,right,0.7869221222222222,0.27858516261334887,9,0,0
125,nb2TestingBlock,9,2,right,0,0.7550256,left,0.7869221222222222,0.27858516261334887,9,0,0
125,nb2TestingBlock,9,1,right,0,0.6707348,left,0.7869221222222222,0.27858516261334887,9,0,0
125,nb2TestingBlock,7,2,right,1,0.8626451,right,0.7869221222222222,0.27858516261334887,9,0,0
125,nb2TestingBlock,9,0,left,1,0.6682281,left,0.7869221222222222,0.27858516261334887,9,0,0
125,nb2TestingBlock,7,0,left,1,0.5973955,left,0.7869221222222222,0.27858516261334887,9,0,0
125,nb2TestingBlock,8,1,right,1,1.0222195,right,0.7869221222222222,0.27858516261334887,9,0,0
125,nb2TestingBlock,3,4,right,1,0.6487812,right,0.7869221222222222,0.27858516261334887,9,0,0
125,nb2TestingBlock,8,0,left,1,0.5285408,left,0.7869221222222222,0.27858516261334887,9,0,0
125,nb2TestingBlock,6,3,right,1,0.7285125,right,0.7869221222222222,0.27858516261334887,9,0,0
125,nb2TestingBlock,10,2,right,0,0.7689608,left,0.7869221222222222,0.27858516261334887,9,0,0
125,nb2TestingBlock,6,0,left,0,0.6957476,right,0.7869221222222222,0.27858516261334887,9,0,0
125,nb2TestingBlock,10,0,left,1,0.7395039,left,0.7869221222222222,0.27858516261334887,9,0,0
125,nb2TestingBlock,5,1,right,1,0.6342237,right,0.7869221222222222,0.27858516261334887,9,0,0
125,nb2TestingBlock,10,0,left,1,0.5993396,left,0.7869221222222222,0.27858516261334887,9,0,0
125,nb2TestingBlock,5,0,left,0,0.7338261,right,0.7869221222222222,0.27858516261334887,9,0,0
125,nb2TestingBlock,7,3,right,1,0.922493,right,0.7869221222222222,0.27858516261334887,9,0,0
125,nb2TestingBlock,3,2,right,1,0.7125679,right,0.7869221222222222,0.27858516261334887,9,0,0
125,nb2TestingBlock,10,3,right,0,0.6459467,left,0.7869221222222222,0.27858516261334887,9,0,0
125,nb2TestingBlock,7,4,right,1,0.9917016,right,0.7869221222222222,0.27858516261334887,9,0,0
125,nb2TestingBlock,14,4,right,1,0.7818918,right,0.7869221222222222,0.27858516261334887,9,0,0
125,nb2TestingBlock,6,1,right,0,0.6365195,left,0.7869221222222222,0.27858516261334887,9,0,0
125,nb2TestingBlock,14,0,left,1,0.79054,left,0.7869221222222222,0.27858516261334887,9,0,0
125,nb2TestingBlock,2,4,right,1,0.679008,right,0.7869221222222222,0.27858516261334887,9,0,0
125,nb2TestingBlock,13,1,right,0,0.6378145,left,0.7869221222222222,0.27858516261334887,9,0,0
125,nb2TestingBlock,1,1,right,1,0.9666931,right,0.7869221222222222,0.27858516261334887,9,0,0
125,nb2TestingBlock,0,2,right,1,0.816427,right,0.7869221222222222,0.27858516261334887,9,0,0
125,nb2TestingBlock,4,3,right,1,0.8114102,right,0.7869221222222222,0.27858516261334887,9,0,0
125,nb2TestingBlock,4,4,right,0,0.6351659,left,0.7869221222222222,0.27858516261334887,9,0,0
125,nb2TestingBlock,8,4,right,1,0.8227071,right,0.7869221222222222,0.27858516261334887,9,0,0
125,nb2TestingBlock,4,0,left,0,0.8038318,right,0.7869221222222222,0.27858516261334887,9,0,0
125,nb2TestingBlock,8,0,left,0,0.7682271,right,0.7869221222222222,0.27858516261334887,9,0,0
125,nb2TestingBlock,2,2,right,1,0.8087497,right,0.7869221222222222,0.27858516261334887,9,0,0
125,nb2TestingBlock,5,3,right,0,0.6718157,left,0.7869221222222222,0.27858516261334887,9,0,0
125,nb2TestingBlock,2,0,left,0,0.9594791,right,0.7869221222222222,0.27858516261334887,9,0,0
125,nb2TestingBlock,2,3,right,0,0.7110438,left,0.7869221222222222,0.27858516261334887,9,0,0
125,nb2TestingBlock,13,4,right,1,0.7425891,right,0.7869221222222222,0.27858516261334887,9,0,0
125,nb2TestingBlock,2,0,left,1,0.5325418,left,0.7869221222222222,0.27858516261334887,9,0,0
125,nb2TestingBlock,13,0,left,1,0.6903537,left,0.7869221222222222,0.27858516261334887,9,0,0
125,nb2TestingBlock,14,3,right,1,0.7857759,right,0.7869221222222222,0.27858516261334887,9,0,0
125,nb2TestingBlock,13,0,left,1,0.669525,left,0.7869221222222222,0.27858516261334887,9,0,0
125,nb2TestingBlock,12,2,right,1,0.6918037,right,0.7869221222222222,0.27858516261334887,9,0,0
125,nb2TestingBlock,12,1,right,0,0.6269864,left,0.7869221222222222,0.27858516261334887,9,0,0
125,nb2TestingBlock,1,4,right,1,0.7174685,right,0.7869221222222222,0.27858516261334887,9,0,0
125,nb2TestingBlock,12,0,left,1,0.5032536,left,0.7869221222222222,0.27858516261334887,9,0,0
125,nb2TestingBlock,0,1,right,1,0.8530032,right,0.7869221222222222,0.27858516261334887,9,0,0
125,nb2TestingBlock,12,0,left,1,0.9786956,left,0.7869221222222222,0.27858516261334887,9,0,0
125,nb2TestingBlock,0,0,left,0,0.618545,right,0.7869221222222222,0.27858516261334887,9,0,0
125,nb2TestingBlock,12,0,left,1,0.6422648,left,0.7869221222222222,0.27858516261334887,9,0,0
127,nb1TestingBlock,11,0,left,1,0.6168812,left,0.6669080966666667,0.18056344893383902,3,0,0
127,nb1TestingBlock,7,4,right,1,0.735264,right,0.6669080966666667,0.18056344893383902,3,0,0
127,nb1TestingBlock,8,1,right,1,0.7112817,right,0.6669080966666667,0.18056344893383902,3,0,0
127,nb1TestingBlock,12,4,right,1,0.6116837,right,0.6669080966666667,0.18056344893383902,3,0,0
127,nb1TestingBlock,12,0,left,1,0.4803304,left,0.6669080966666667,0.18056344893383902,3,0,0
127,nb1TestingBlock,0,3,right,1,0.5417061,right,0.6669080966666667,0.18056344893383902,3,0,0
127,nb1TestingBlock,0,0,left,1,0.6330079,left,0.6669080966666667,0.18056344893383902,3,0,0
127,nb1TestingBlock,1,1,right,1,0.6593165,right,0.6669080966666667,0.18056344893383902,3,0,0
127,nb1TestingBlock,3,2,right,1,0.9987243,right,0.6669080966666667,0.18056344893383902,3,0,0
127,nb1TestingBlock,2,1,right,1,0.9243413,right,0.6669080966666667,0.18056344893383902,3,0,0
127,nb1TestingBlock,6,4,right,1,0.7410477,right,0.6669080966666667,0.18056344893383902,3,0,0
127,nb1TestingBlock,6,0,left,1,0.561897,left,0.6669080966666667,0.18056344893383902,3,0,0
127,nb1TestingBlock,6,0,left,1,0.686297,left,0.6669080966666667,0.18056344893383902,3,0,0
127,nb1TestingBlock,10,4,right,1,0.6140892,right,0.6669080966666667,0.18056344893383902,3,0,0
127,nb1TestingBlock,8,2,right,1,1.0723182,right,0.6669080966666667,0.18056344893383902,3,0,0
127,nb1TestingBlock,8,0,left,1,0.4059628,left,0.6669080966666667,0.18056344893383902,3,0,0
127,nb1TestingBlock,6,2,right,1,0.4952868,right,0.6669080966666667,0.18056344893383902,3,0,0
127,nb1TestingBlock,9,3,right,1,0.5999703,right,0.6669080966666667,0.18056344893383902,3,0,0
127,nb1TestingBlock,9,0,left,1,0.5015785,left,0.6669080966666667,0.18056344893383902,3,0,0
127,nb1TestingBlock,5,4,right,1,0.8491254,right,0.6669080966666667,0.18056344893383902,3,0,0
127,nb1TestingBlock,4,1,right,1,0.7416127,right,0.6669080966666667,0.18056344893383902,3,0,0
127,nb1TestingBlock,4,0,left,1,0.9298965,left,0.6669080966666667,0.18056344893383902,3,0,0
127,nb1TestingBlock,2,2,right,1,0.5502259,right,0.6669080966666667,0.18056344893383902,3,0,0
127,nb1TestingBlock,14,3,right,1,0.8039209,right,0.6669080966666667,0.18056344893383902,3,0,0
127,nb1TestingBlock,11,3,right,1,0.6057623,right,0.6669080966666667,0.18056344893383902,3,0,0
127,nb1TestingBlock,13,2,right,1,0.7879271,right,0.6669080966666667,0.18056344893383902,3,0,0
127,nb1TestingBlock,13,0,left,1,0.3942953,left,0.6669080966666667,0.18056344893383902,3,0,0
127,nb1TestingBlock,14,1,right,1,0.6426884,right,0.6669080966666667,0.18056344893383902,3,0,0
127,nb1TestingBlock,2,3,right,1,0.8135996,right,0.6669080966666667,0.18056344893383902,3,0,0
127,nb1TestingBlock,2,0,left,1,0.2972042,left,0.6669080966666667,0.18056344893383902,3,0,0
127,nb2TestingBlock,3,0,left,1,0.8728906,left,0.9285338577777777,0.44898569428641055,9,0,0
127,nb2TestingBlock,9,3,right,1,0.7909786,right,0.9285338577777777,0.44898569428641055,9,0,0
127,nb2TestingBlock,2,1,right,0,1.3354273,left,0.9285338577777777,0.44898569428641055,9,0,0
127,nb2TestingBlock,9,0,left,1,0.9850103,left,0.9285338577777777,0.44898569428641055,9,0,0
127,nb2TestingBlock,4,2,right,1,1.2691696,right,0.9285338577777777,0.44898569428641055,9,0,0
127,nb2TestingBlock,10,1,right,0,0.5042589,left,0.9285338577777777,0.44898569428641055,9,0,0
127,nb2TestingBlock,6,2,right,1,1.013389,right,0.9285338577777777,0.44898569428641055,9,0,0
127,nb2TestingBlock,6,4,right,0,0.9374166,left,0.9285338577777777,0.44898569428641055,9,0,0
127,nb2TestingBlock,7,1,right,1,1.4276728,right,0.9285338577777777,0.44898569428641055,9,0,0
127,nb2TestingBlock,6,0,left,1,0.8722712,left,0.9285338577777777,0.44898569428641055,9,0,0
127,nb2TestingBlock,5,2,right,1,0.4387652,right,0.9285338577777777,0.44898569428641055,9,0,0
127,nb2TestingBlock,10,4,right,0,0.8150685,left,0.9285338577777777,0.44898569428641055,9,0,0
127,nb2TestingBlock,2,3,right,1,0.7624334,right,0.9285338577777777,0.44898569428641055,9,0,0
127,nb2TestingBlock,13,3,right,1,1.5599212,right,0.9285338577777777,0.44898569428641055,9,0,0
127,nb2TestingBlock,3,1,right,0,0.6647705,left,0.9285338577777777,0.44898569428641055,9,0,0
127,nb2TestingBlock,1,3,right,1,1.0135122,right,0.9285338577777777,0.44898569428641055,9,0,0
127,nb2TestingBlock,3,0,left,0,1.0030123,right,0.9285338577777777,0.44898569428641055,9,0,0
127,nb2TestingBlock,1,0,left,1,0.8114485,left,0.9285338577777777,0.44898569428641055,9,0,0
127,nb2TestingBlock,4,1,right,1,1.0354694,right,0.9285338577777777,0.44898569428641055,9,0,0
127,nb2TestingBlock,1,0,left,1,1.0656063,left,0.9285338577777777,0.44898569428641055,9,0,0
127,nb2TestingBlock,4,0,left,0,0.6331595,right,0.9285338577777777,0.44898569428641055,9,0,0
127,nb2TestingBlock,5,4,right,0,0.7109555,left,0.9285338577777777,0.44898569428641055,9,0,0
127,nb2TestingBlock,0,4,right,0,0.8869342,left,0.9285338577777777,0.44898569428641055,9,0,0
127,nb2TestingBlock,5,0,left,0,2.0646559,right,0.9285338577777777,0.44898569428641055,9,0,0
127,nb2TestingBlock,3,3,right,1,0.8881134,right,0.9285338577777777,0.44898569428641055,9,0,0
127,nb2TestingBlock,1,4,right,0,1.1050835,left,0.9285338577777777,0.44898569428641055,9,0,0
127,nb2TestingBlock,1,2,right,1,1.4008461,right,0.9285338577777777,0.44898569428641055,9,0,0
127,nb2TestingBlock,12,4,right,1,1.3372379,right,0.9285338577777777,0.44898569428641055,9,0,0
127,nb2TestingBlock,14,2,right,0,0.8888001,left,0.9285338577777777,0.44898569428641055,9,0,0
127,nb2TestingBlock,11,1,right,1,1.3449893,right,0.9285338577777777,0.44898569428641055,9,0,0
127,nb2TestingBlock,14,0,left,0,1.4009339,right,0.9285338577777777,0.44898569428641055,9,0,0
127,nb2TestingBlock,14,3,right,0,0.808655,left,0.9285338577777777,0.44898569428641055,9,0,0
127,nb2TestingBlock,12,2,right,1,3.7296883,right,0.9285338577777777,0.44898569428641055,9,1,0
127,nb2TestingBlock,0,1,right,0,0.8406169,left,0.9285338577777777,0.44898569428641055,9,0,0
127,nb2TestingBlock,8,4,right,1,0.8735952,right,0.9285338577777777,0.44898569428641055,9,0,0
127,nb2TestingBlock,0,0,left,0,1.3188082,right,0.9285338577777777,0.44898569428641055,9,0,0
127,nb2TestingBlock,11,3,right,1,1.4174164,right,0.9285338577777777,0.44898569428641055,9,0,0
127,nb2TestingBlock,13,2,right,1,0.7929549,right,0.9285338577777777,0.44898569428641055,9,0,0
127,nb2TestingBlock,11,0,left,1,0.5990624,left,0.9285338577777777,0.44898569428641055,9,0,0
127,nb2TestingBlock,11,2,right,0,0.4304729,left,0.9285338577777777,0.44898569428641055,9,0,0
127,nb2TestingBlock,11,0,left,1,0.2543767,left,0.9285338577777777,0.44898569428641055,9,0,0
127,nb2TestingBlock,8,3,right,1,1.2583389,right,0.9285338577777777,0.44898569428641055,9,0,0
127,nb2TestingBlock,9,2,right,1,1.4654739,right,0.9285338577777777,0.44898569428641055,9,0,0
127,nb2TestingBlock,9,1,right,1,0.9518999,right,0.9285338577777777,0.44898569428641055,9,0,0
127,nb2TestingBlock,7,2,right,0,0.5353537,left,0.9285338577777777,0.44898569428641055,9,0,0
127,nb2TestingBlock,9,0,left,1,0.7076108,left,0.9285338577777777,0.44898569428641055,9,0,0
127,nb2TestingBlock,7,0,left,0,0.4453685,right,0.9285338577777777,0.44898569428641055,9,0,0
127,nb2TestingBlock,8,1,right,0,0.4093513,left,0.9285338577777777,0.44898569428641055,9,0,0
127,nb2TestingBlock,3,4,right,1,1.0717541,right,0.9285338577777777,0.44898569428641055,9,0,0
127,nb2TestingBlock,8,0,left,1,0.7443401,left,0.9285338577777777,0.44898569428641055,9,0,0
127,nb2TestingBlock,6,3,right,1,0.6455386,right,0.9285338577777777,0.44898569428641055,9,0,0
127,nb2TestingBlock,10,2,right,1,0.9768126,right,0.9285338577777777,0.44898569428641055,9,0,0
127,nb2TestingBlock,6,0,left,1,0.7467047,left,0.9285338577777777,0.44898569428641055,9,0,0
127,nb2TestingBlock,10,0,left,1,1.0594044,left,0.9285338577777777,0.44898569428641055,9,0,0
127,nb2TestingBlock,5,1,right,1,0.5047376,right,0.9285338577777777,0.44898569428641055,9,0,0
127,nb2TestingBlock,10,0,left,0,0.8529337,right,0.9285338577777777,0.44898569428641055,9,0,0
127,nb2TestingBlock,5,0,left,1,0.6432224,left,0.9285338577777777,0.44898569428641055,9,0,0
127,nb2TestingBlock,7,3,right,1,0.5127655,right,0.9285338577777777,0.44898569428641055,9,0,0
127,nb2TestingBlock,3,2,right,1,0.9586473,right,0.9285338577777777,0.44898569428641055,9,0,0
127,nb2TestingBlock,10,3,right,1,1.0632219,right,0.9285338577777777,0.44898569428641055,9,0,0
127,nb2TestingBlock,7,4,right,0,0.7298642,left,0.9285338577777777,0.44898569428641055,9,0,0
127,nb2TestingBlock,14,4,right,0,0.5866627,left,0.9285338577777777,0.44898569428641055,9,0,0
127,nb2TestingBlock,6,1,right,1,0.500718,right,0.9285338577777777,0.44898569428641055,9,0,0
127,nb2TestingBlock,14,0,left,0,0.8692078,right,0.9285338577777777,0.44898569428641055,9,0,0
127,nb2TestingBlock,2,4,right,0,0.3969938,left,0.9285338577777777,0.44898569428641055,9,0,0
127,nb2TestingBlock,13,1,right,1,1.0946233,right,0.9285338577777777,0.44898569428641055,9,0,0
127,nb2TestingBlock,1,1,right,1,0.6497863,right,0.9285338577777777,0.44898569428641055,9,0,0
127,nb2TestingBlock,0,2,right,1,0.9457681,right,0.9285338577777777,0.44898569428641055,9,0,0
127,nb2TestingBlock,4,3,right,1,0.667894,right,0.9285338577777777,0.44898569428641055,9,0,0
127,nb2TestingBlock,4,4,right,1,0.9973154,right,0.9285338577777777,0.44898569428641055,9,0,0
127,nb2TestingBlock,8,4,right,1,0.7989445,right,0.9285338577777777,0.44898569428641055,9,0,0
127,nb2TestingBlock,4,0,left,0,0.9348729,right,0.9285338577777777,0.44898569428641055,9,0,0
127,nb2TestingBlock,8,0,left,0,1.8750471,right,0.9285338577777777,0.44898569428641055,9,0,0
127,nb2TestingBlock,2,2,right,1,0.8405654,right,0.9285338577777777,0.44898569428641055,9,0,0
127,nb2TestingBlock,5,3,right,1,1.1137196,right,0.9285338577777777,0.44898569428641055,9,0,0
127,nb2TestingBlock,2,0,left,1,0.6975164,left,0.9285338577777777,0.44898569428641055,9,0,0
127,nb2TestingBlock,2,3,right,0,0.483075,left,0.9285338577777777,0.44898569428641055,9,0,0
127,nb2TestingBlock,13,4,right,1,1.0412195,right,0.9285338577777777,0.44898569428641055,9,0,0
127,nb2TestingBlock,2,0,left,0,0.7929543,right,0.9285338577777777,0.44898569428641055,9,0,0
127,nb2TestingBlock,13,0,left,1,0.7257706,left,0.9285338577777777,0.44898569428641055,9,0,0
127,nb2TestingBlock,14,3,right,1,0.8001896,right,0.9285338577777777,0.44898569428641055,9,0,0
127,nb2TestingBlock,13,0,left,0,0.512619,right,0.9285338577777777,0.44898569428641055,9,0,0
127,nb2TestingBlock,12,2,right,1,1.005778,right,0.9285338577777777,0.44898569428641055,9,0,0
127,nb2TestingBlock,12,1,right,1,0.624009,right,0.9285338577777777,0.44898569428641055,9,0,0
127,nb2TestingBlock,1,4,right,1,0.8287835,right,0.9285338577777777,0.44898569428641055,9,0,0
127,nb2TestingBlock,12,0,left,0,1.6847396,right,0.9285338577777777,0.44898569428641055,9,0,0
127,nb2TestingBlock,0,1,right,1,1.0973811,right,0.9285338577777777,0.44898569428641055,9,0,0
127,nb2TestingBlock,12,0,left,0,0.6486524,right,0.9285338577777777,0.44898569428641055,9,0,0
127,nb2TestingBlock,0,0,left,0,0.5767567,right,0.9285338577777777,0.44898569428641055,9,0,0
127,nb2TestingBlock,12,0,left,0,0.5872909,right,0.9285338577777777,0.44898569428641055,9,0,0
131,nb1TestingBlock,11,0,left,1,0.3967663,left,0.40662082666666666,0.10491440520791365,3,0,0
131,nb1TestingBlock,7,4,right,1,0.3569939,right,0.40662082666666666,0.10491440520791365,3,0,0
131,nb1TestingBlock,8,1,right,1,0.4914727,right,0.40662082666666666,0.10491440520791365,3,0,0
131,nb1TestingBlock,12,4,right,1,0.4246142,right,0.40662082666666666,0.10491440520791365,3,0,0
131,nb1TestingBlock,12,0,left,1,0.2751062,left,0.40662082666666666,0.10491440520791365,3,0,0
131,nb1TestingBlock,0,3,right,1,0.3631729,right,0.40662082666666666,0.10491440520791365,3,0,0
131,nb1TestingBlock,0,0,left,1,0.3259964,left,0.40662082666666666,0.10491440520791365,3,0,0
131,nb1TestingBlock,1,1,right,1,0.430381,right,0.40662082666666666,0.10491440520791365,3,0,0
131,nb1TestingBlock,3,2,right,0,0.747946,left,0.40662082666666666,0.10491440520791365,3,1,0
131,nb1TestingBlock,2,1,right,1,0.3705809,right,0.40662082666666666,0.10491440520791365,3,0,0
131,nb1TestingBlock,6,4,right,1,0.576224,right,0.40662082666666666,0.10491440520791365,3,0,0
131,nb1TestingBlock,6,0,left,1,0.2791356,left,0.40662082666666666,0.10491440520791365,3,0,0
131,nb1TestingBlock,6,0,left,1,0.5400774,left,0.40662082666666666,0.10491440520791365,3,0,0
131,nb1TestingBlock,10,4,right,1,0.3630608,right,0.40662082666666666,0.10491440520791365,3,0,0
131,nb1TestingBlock,8,2,right,1,0.3890987,right,0.40662082666666666,0.10491440520791365,3,0,0
131,nb1TestingBlock,8,0,left,1,0.458989,left,0.40662082666666666,0.10491440520791365,3,0,0
131,nb1TestingBlock,6,2,right,1,0.4496675,right,0.40662082666666666,0.10491440520791365,3,0,0
131,nb1TestingBlock,9,3,right,1,0.4049725,right,0.40662082666666666,0.10491440520791365,3,0,0
131,nb1TestingBlock,9,0,left,1,0.3012659,left,0.40662082666666666,0.10491440520791365,3,0,0
131,nb1TestingBlock,5,4,right,1,0.3451648,right,0.40662082666666666,0.10491440520791365,3,0,0
