subject_id,trial_congruent_fac,resp_corr,resp_rt,resp_value,log_rt,mean_log_rt,sd_log_rt,exclude_trial,exclude_part
118,congruent,1,0.6979673,left,-0.3595830254547087,-0.2138579408963574,0.2786817286728527,0,0
118,congruent,1,0.9888399,right,-0.01122284115108086,-0.2138579408963574,0.2786817286728527,0,0
118,incongruent,1,0.9399919,right,-0.06188402077649082,-0.1885519864539109,0.125812982841782,0,0
118,congruent,1,0.7390123,right,-0.3024407140587799,-0.2138579408963574,0.2786817286728527,0,0
118,congruent,1,0.8728188,left,-0.13602730482357833,-0.2138579408963574,0.2786817286728527,0,0
118,incongruent,1,1.0229709,left,0.022711040817100903,-0.1885519864539109,0.125812982841782,0,0
118,incongruent,1,1.1008398,right,0.09607334306660273,-0.1885519864539109,0.125812982841782,0,0
118,incongruent,1,0.9501478,left,-0.05113772754133145,-0.1885519864539109,0.125812982841782,0,0
118,congruent,1,0.8888686,right,-0.11780586091687772,-0.2138579408963574,0.2786817286728527,0,0
118,incongruent,1,0.7510627,left,-0.2862661420212307,-0.1885519864539109,0.125812982841782,0,0
118,incongruent,1,0.8858114,left,-0.12125121785356843,-0.1885519864539109,0.125812982841782,0,0
118,congruent,1,0.7978679,right,-0.22581223408251336,-0.2138579408963574,0.2786817286728527,0,0
118,congruent,1,1.0289728,left,0.028561023072028232,-0.2138579408963574,0.2786817286728527,0,0
118,incongruent,1,0.7750366,right,-0.25484502493744177,-0.1885519864539109,0.125812982841782,0,0
118,incongruent,1,0.7929043,right,-0.2320527455882077,-0.1885519864539109,0.125812982841782,0,0
118,congruent,1,0.7439225,left,-0.2958184162414358,-0.2138579408963574,0.2786817286728527,0,0
118,incongruent,1,0.6858717,right,-0.3770646949869069,-0.1885519864539109,0.125812982841782,0,0
118,congruent,1,0.753868,right,-0.28253799261307405,-0.2138579408963574,0.2786817286728527,0,0
118,congruent,1,0.568099,left,-0.5654595796740816,-0.2138579408963574,0.2786817286728527,0,0
118,incongruent,1,0.8969406,left,-0.10876563985181664,-0.1885519864539109,0.125812982841782,0,0
118,congruent,1,0.6929177,left,-0.3668440458634035,-0.2138579408963574,0.2786817286728527,0,0
118,incongruent,1,0.8317593,right,-0.18421218290169633,-0.1885519864539109,0.125812982841782,0,0
118,congruent,1,0.8238283,right,-0.1937931445719069,-0.2138579408963574,0.2786817286728527,0,0
118,incongruent,1,0.6697969,left,-0.40078074687998116,-0.1885519864539109,0.125812982841782,0,0
118,incongruent,1,0.7080121,right,-0.3452940950389762,-0.1885519864539109,0.125812982841782,0,0
118,congruent,1,0.6347632,left,-0.45450326302476,-0.2138579408963574,0.2786817286728527,0,0
118,congruent,1,0.8240396,right,-0.193536691974999,-0.2138579408963574,0.2786817286728527,0,0
118,congruent,1,0.7660721,right,-0.26647898834468553,-0.2138579408963574,0.2786817286728527,0,0
118,incongruent,1,0.8768238,left,-0.13144921899619805,-0.1885519864539109,0.125812982841782,0,0
118,incongruent,1,0.904017,left,-0.1009071134570437,-0.1885519864539109,0.125812982841782,0,0
118,incongruent,1,0.759065,right,-0.27566786625463435,-0.1885519864539109,0.125812982841782,0,0
118,congruent,1,1.2360087,left,0.21188739784567798,-0.2138579408963574,0.2786817286728527,0,0
118,congruent,1,0.7335571,left,-0.3098498384848353,-0.2138579408963574,0.2786817286728527,0,0
118,congruent,1,2.0868627,right,0.7356618377181788,-0.2138579408963574,0.2786817286728527,0,0
118,incongruent,1,0.8797597,right,-0.12810647698160763,-0.1885519864539109,0.125812982841782,0,0
118,congruent,1,1.0087799,left,0.008741580807108068,-0.2138579408963574,0.2786817286728527,0,0
118,congruent,1,0.5574743,right,-0.5843388753651474,-0.2138579408963574,0.2786817286728527,0,0
118,incongruent,1,0.7578322,left,-0.2772932898778327,-0.1885519864539109,0.125812982841782,0,0
118,incongruent,1,0.7437364,left,-0.296068608003769,-0.1885519864539109,0.125812982841782,0,0
118,incongruent,1,0.7788731,right,-0.2499071475365505,-0.1885519864539109,0.125812982841782,0,0
118,incongruent,1,0.8789851,left,-0.1289873325214049,-0.1885519864539109,0.125812982841782,0,0
118,incongruent,1,0.8708566,left,-0.13827795403074253,-0.1885519864539109,0.125812982841782,0,0
118,congruent,1,0.8406529,left,-0.1735764271516173,-0.2138579408963574,0.2786817286728527,0,0
118,congruent,1,0.6248897,left,-0.4701801248201632,-0.2138579408963574,0.2786817286728527,0,0
118,incongruent,1,0.7199744,right,-0.32853962315970536,-0.1885519864539109,0.125812982841782,0,0
118,congruent,1,0.6967303,right,-0.36135688714968894,-0.2138579408963574,0.2786817286728527,0,0
118,congruent,1,0.640007,right,-0.44627616518823354,-0.2138579408963574,0.2786817286728527,0,0
118,incongruent,1,0.8476621,right,-0.16527318958042891,-0.1885519864539109,0.125812982841782,0,0
119,incongruent,1,0.7312598,right,-0.3129864788164712,-0.4461305851826708,0.10101112040960798,0,0
119,congruent,1,0.6399415,right,-0.4463785130562253,-0.5852871605904952,0.16776663044843956,0,0
119,congruent,1,0.5868461,left,-0.5329926741085934,-0.5852871605904952,0.16776663044843956,0,0
119,incongruent,1,0.7399231,left,-0.3012090171027856,-0.4461305851826708,0.10101112040960798,0,0
119,congruent,1,0.6498859,left,-0.4309584699626717,-0.5852871605904952,0.16776663044843956,0,0
119,incongruent,1,0.7468993,left,-0.29182490882667794,-0.4461305851826708,0.10101112040960798,0,0
119,incongruent,1,0.8518694,right,-0.16032205028735647,-0.4461305851826708,0.10101112040960798,0,0
119,congruent,1,0.8998136,right,-0.1055676482194054,-0.5852871605904952,0.16776663044843956,0,0
119,incongruent,1,0.663109,left,-0.41081589808594016,-0.4461305851826708,0.10101112040960798,0,0
119,incongruent,1,0.6287467,right,-0.4640268060909079,-0.4461305851826708,0.10101112040960798,0,0
119,congruent,1,0.5717497,left,-0.5590539707842377,-0.5852871605904952,0.16776663044843956,0,0
119,congruent,1,0.5199474,right,-0.6540276263692133,-0.5852871605904952,0.16776663044843956,0,0
119,congruent,1,0.6628322,right,-0.4112334128354945,-0.5852871605904952,0.16776663044843956,0,0
119,incongruent,1,0.6660017,left,-0.4064630558924531,-0.4461305851826708,0.10101112040960798,0,0
119,congruent,1,0.5618871,left,-0.5764543389491958,-0.5852871605904952,0.16776663044843956,0,0
119,incongruent,1,0.6228887,right,-0.47338742784019044,-0.4461305851826708,0.10101112040960798,0,0
119,congruent,1,0.4749316,left,-0.7445844853164912,-0.5852871605904952,0.16776663044843956,0,0
119,congruent,1,0.4608256,right,-0.7747356155880527,-0.5852871605904952,0.16776663044843956,0,0
119,incongruent,1,0.6579411,left,-0.41863986534121983,-0.4461305851826708,0.10101112040960798,0,0
119,incongruent,1,0.6528514,left,-0.4264057406867954,-0.4461305851826708,0.10101112040960798,0,0
119,incongruent,1,0.5907284,right,-0.5263989272738121,-0.4461305851826708,0.10101112040960798,0,0
119,incongruent,1,0.6550635,right,-0.42302310148101413,-0.4461305851826708,0.10101112040960798,0,0
119,congruent,1,0.5959038,left,-0.5176760343406589,-0.5852871605904952,0.16776663044843956,0,0
119,congruent,1,0.5259194,right,-0.6426073099248036,-0.5852871605904952,0.16776663044843956,0,0
119,incongruent,1,0.5848106,left,-0.5364672448558465,-0.4461305851826708,0.10101112040960798,0,0
119,incongruent,1,0.5500665,right,-0.5977160989736263,-0.4461305851826708,0.10101112040960798,0,0
119,congruent,1,0.4819327,right,-0.7299508012362484,-0.5852871605904952,0.16776663044843956,0,0
119,congruent,1,0.4417798,right,-0.8169437110875796,-0.5852871605904952,0.16776663044843956,0,0
119,congruent,1,0.4580416,left,-0.7807952692983959,-0.5852871605904952,0.16776663044843956,0,0
119,congruent,1,0.5519418,left,-0.5943126730462878,-0.5852871605904952,0.16776663044843956,0,0
119,incongruent,1,0.5708966,right,-0.5605471715385034,-0.4461305851826708,0.10101112040960798,0,0
119,incongruent,1,0.6048714,left,-0.502739405529267,-0.4461305851826708,0.10101112040960798,0,0
119,incongruent,1,0.588892,left,-0.5295124737732304,-0.4461305851826708,0.10101112040960798,0,0
119,incongruent,1,0.5927849,right,-0.5229236776593683,-0.4461305851826708,0.10101112040960798,0,0
119,congruent,1,0.4900974,left,-0.7131511321204947,-0.5852871605904952,0.16776663044843956,0,0
119,incongruent,1,0.6768818,left,-0.3902586151092927,-0.4461305851826708,0.10101112040960798,0,0
119,congruent,1,0.4488531,right,-0.8010596162643567,-0.5852871605904952,0.16776663044843956,0,0
119,incongruent,1,0.6410807,right,-0.44459993294995237,-0.4461305851826708,0.10101112040960798,0,0
119,congruent,1,0.5868669,left,-0.5329572310317899,-0.5852871605904952,0.16776663044843956,0,0
119,congruent,1,0.5039791,right,-0.6852204800245685,-0.5852871605904952,0.16776663044843956,0,0
119,incongruent,1,0.6049749,left,-0.5025683094152358,-0.4461305851826708,0.10101112040960798,0,0
119,incongruent,1,0.5989192,right,-0.5126285814511721,-0.4461305851826708,0.10101112040960798,0,0
119,congruent,1,0.5539502,right,-0.5906804879721049,-0.5852871605904952,0.16776663044843956,0,0
119,congruent,1,0.5719372,left,-0.5587260838395156,-0.5852871605904952,0.16776663044843956,0,0
119,incongruent,1,0.5879626,left,-0.5310919385485989,-0.4461305851826708,0.10101112040960798,0,0
119,congruent,1,0.5858173,right,-0.5347473127610015,-0.5852871605904952,0.16776663044843956,0,0
119,congruent,1,0.7319252,left,-0.3120769560344989,-0.5852871605904952,0.16776663044843956,0,0
119,incongruent,1,0.6309193,right,-0.46057731685438147,-0.4461305851826708,0.10101112040960798,0,0
120,incongruent,1,0.5839549,left,-0.5379315251633904,-0.5674279889288861,0.08629435004651839,0,0
120,incongruent,1,0.5869052,right,-0.5328919713446435,-0.5674279889288861,0.08629435004651839,0,0
120,incongruent,1,0.5880246,right,-0.530986495223948,-0.5674279889288861,0.08629435004651839,0,0
120,congruent,1,0.4798415,right,-0.7342994379443102,-0.7068302457786263,0.08832974164660544,0,0
120,congruent,1,0.5029873,left,-0.6871903577100931,-0.7068302457786263,0.08832974164660544,0,0
120,congruent,1,0.5048855,left,-0.683423608087783,-0.7068302457786263,0.08832974164660544,0,0
120,incongruent,1,0.6599989,left,-0.4155171106297213,-0.5674279889288861,0.08629435004651839,0,0
120,congruent,1,0.5497791,right,-0.5982387177967439,-0.7068302457786263,0.08832974164660544,0,0
120,congruent,1,0.4789438,left,-0.7361720162208422,-0.7068302457786263,0.08832974164660544,0,0
120,incongruent,1,0.5549518,left,-0.5888740158539552,-0.5674279889288861,0.08629435004651839,0,0
120,congruent,1,0.5048732,right,-0.6834479703438361,-0.7068302457786263,0.08832974164660544,0,0
120,incongruent,1,0.6039331,right,-0.5042918487712439,-0.5674279889288861,0.08629435004651839,0,0
120,incongruent,1,0.516941,right,-0.6598265309085123,-0.5674279889288861,0.08629435004651839,0,0
120,incongruent,1,0.5628734,left,-0.574700542913853,-0.5674279889288861,0.08629435004651839,0,0
120,congruent,1,0.4890297,left,-0.7153320551553141,-0.7068302457786263,0.08832974164660544,0,0
120,congruent,1,0.5607338,right,-0.5785089958787656,-0.7068302457786263,0.08832974164660544,0,0
120,congruent,1,0.4260114,right,-0.8532891725074438,-0.7068302457786263,0.08832974164660544,0,0
120,incongruent,1,0.6119428,left,-0.4911164648901352,-0.5674279889288861,0.08629435004651839,0,0
120,incongruent,1,0.5738924,right,-0.55531335668071935,-0.5674279889288861,0.08629435004651839,0,0
120,incongruent,1,0.6048489,right,-0.5027766042106523,-0.5674279889288861,0.08629435004651839,0,0
120,congruent,1,0.4939435,right,-0.7053341408048799,-0.7068302457786263,0.08832974164660544,0,0
120,congruent,1,0.5699103,left,-0.5622762989583031,-0.7068302457786263,0.08832974164660544,0,0
120,congruent,1,0.5018493,left,-0.6894554035623958,-0.7068302457786263,0.08832974164660544,0,0
120,incongruent,1,0.5509591,left,-0.5960947012594431,-0.5674279889288861,0.08629435004651839,0,0
120,congruent,1,0.5649742,right,-0.5709752125951295,-0.7068302457786263,0.08832974164660544,0,0
120,congruent,1,0.459157,left,-0.778363079476366,-0.7068302457786263,0.08832974164660544,0,0
120,incongruent,1,0.583611,right,-0.5385206139847498,-0.5674279889288861,0.08629435004651839,0,0
120,incongruent,1,0.5756181,left,-0.552310859015094,-0.5674279889288861,0.08629435004651839,0,0
120,incongruent,1,0.5147756,left,-0.6640242014308381,-0.5674279889288861,0.08629435004651839,0,0
120,congruent,1,0.528975,right,-0.6368141072197845,-0.7068302457786263,0.08832974164660544,0,0
120,incongruent,1,0.6149438,right,-0.48622439746504,-0.5674279889288861,0.08629435004651839,0,0
120,congruent,1,0.528856,left,-0.6370390959003998,-0.7068302457786263,0.08832974164660544,0,0
120,incongruent,1,0.5759134,right,-0.5517979768117446,-0.5674279889288861,0.08629435004651839,0,0
120,congruent,1,0.4589564,left,-0.7788000625400967,-0.7068302457786263,0.08832974164660544,0,0
120,incongruent,1,0.5549372,right,-0.5889003247911566,-0.5674279889288861,0.08629435004651839,0,0
120,incongruent,1,0.5179348,left,-0.6579059133706555,-0.5674279889288861,0.08629435004651839,0,0
120,incongruent,1,0.5339273,left,-0.6274955916122468,-0.5674279889288861,0.08629435004651839,0,0
120,congruent,1,0.4398545,left,-0.8213112885753009,-0.7068302457786263,0.08832974164660544,0,0
120,congruent,1,0.4310496,right,-0.8415321142932268,-0.7068302457786263,0.08832974164660544,0,0
120,congruent,1,0.460748,right,-0.7749040231904046,-0.7068302457786263,0.08832974164660544,0,0
120,incongruent,1,0.6588113,right,-0.4173181284274526,-0.5674279889288861,0.08629435004651839,0,0
120,congruent,1,0.4328933,right,-0.8372640016694495,-0.7068302457786263,0.08832974164660544,0,0
120,incongruent,1,0.4449715,left,-0.809745043810682,-0.5674279889288861,0.08629435004651839,0,0
120,congruent,1,0.4589852,left,-0.7787373134501557,-0.7068302457786263,0.08832974164660544,0,0
120,incongruent,1,0.51288,left,-0.6677133793031351,-0.5674279889288861,0.08629435004651839,0,0
120,incongruent,1,0.5677954,right,-0.5659941364202536,-0.5674279889288861,0.08629435004651839,0,0
120,congruent,1,0.5259471,right,-0.6425546416441684,-0.7068302457786263,0.08832974164660544,0,0
120,congruent,1,0.527998,left,-0.6386627831618376,-0.7068302457786263,0.08832974164660544,0,0
121,congruent,1,0.6250982,right,-0.4698465215877899,-0.5016298459040701,0.16449869643592946,0,0
121,incongruent,1,0.7689707,left,-0.2627024116328001,-0.35576017003467486,0.13195409819792525,0,0
121,congruent,1,0.6539614,left,-0.4247069506734979,-0.5016298459040701,0.16449869643592946,0,0
121,incongruent,1,0.7288561,right,-0.31627896014816376,-0.35576017003467486,0.13195409819792525,0,0
121,incongruent,1,0.6588633,left,-0.41723920150569654,-0.35576017003467486,0.13195409819792525,0,0
121,congruent,1,0.55595,right,-0.5870769168328788,-0.5016298459040701,0.16449869643592946,0,0
121,incongruent,1,0.6300106,right,-0.4620186343412787,-0.35576017003467486,0.13195409819792525,0,0
121,congruent,1,0.3948654,left,-0.9292103316463951,-0.5016298459040701,0.16449869643592946,0,0
121,incongruent,1,0.5499101,right,-0.5980004686612251,-0.35576017003467486,0.13195409819792525,0,0
121,congruent,1,0.5789298,right,-0.5465740522830479,-0.5016298459040701,0.16449869643592946,0,0
121,incongruent,1,0.6258871,left,-0.4685852755850144,-0.35576017003467486,0.13195409819792525,0,0
121,congruent,1,0.6318896,left,-0.4590405836385307,-0.5016298459040701,0.16449869643592946,0,0
121,congruent,1,0.5888905,right,-0.5295150209328291,-0.5016298459040701,0.16449869643592946,0,0
121,incongruent,1,0.8338563,right,-0.18169419362738587,-0.35576017003467486,0.13195409819792525,0,0
121,incongruent,1,0.7040386,left,-0.35092209478172476,-0.35576017003467486,0.13195409819792525,0,0
121,congruent,1,0.9439636,left,-0.057667672902100016,-0.5016298459040701,0.16449869643592946,0,0
121,incongruent,1,0.6868357,right,-0.3756601711117204,-0.35576017003467486,0.13195409819792525,0,0
121,congruent,1,0.6559006,right,-0.4217460259092722,-0.5016298459040701,0.16449869643592946,0,0
121,congruent,1,0.5669712,left,-0.5674467701952198,-0.5016298459040701,0.16449869643592946,0,0
121,congruent,1,0.6549123,right,-0.4232539454411414,-0.5016298459040701,0.16449869643592946,0,0
121,congruent,1,0.5670677,left,-0.5672765820293061,-0.5016298459040701,0.16449869643592946,0,0
121,incongruent,1,0.706986,left,-0.3467444152618241,-0.35576017003467486,0.13195409819792525,0,0
121,incongruent,1,0.7538677,right,-0.2825383905608045,-0.35576017003467486,0.13195409819792525,0,0
121,incongruent,1,0.7339034,left,-0.30937786665809325,-0.35576017003467486,0.13195409819792525,0,0
121,congruent,1,0.6240383,left,-0.4715435342911461,-0.5016298459040701,0.16449869643592946,0,0
121,congruent,1,0.5269312,right,-0.6406852892478347,-0.5016298459040701,0.16449869643592946,0,0
121,incongruent,1,0.6218246,left,-0.47509721957975237,-0.35576017003467486,0.13195409819792525,0,0
121,incongruent,1,0.6928561,right,-0.36693294926169345,-0.35576017003467486,0.13195409819792525,0,0
121,congruent,1,0.6427763,right,-0.4419585157424877,-0.5016298459040701,0.16449869643592946,0,0
121,incongruent,1,0.7908774,right,-0.23461231690613227,-0.35576017003467486,0.13195409819792525,0,0
121,congruent,1,0.496792,left,-0.699583851552105,-0.5016298459040701,0.16449869643592946,0,0
121,incongruent,1,0.7728528,left,-0.25766667543637095,-0.35576017003467486,0.13195409819792525,0,0
121,incongruent,1,0.7709644,right,-0.2601130802851097,-0.35576017003467486,0.13195409819792525,0,0
121,congruent,1,0.62684550000000006,left,-0.46705518019676756,-0.5016298459040701,0.16449869643592946,0,0
121,incongruent,1,0.9739349,left,-0.026410815355686873,-0.35576017003467486,0.13195409819792525,0,0
121,incongruent,1,0.7519756,right,-0.285051402367217,-0.35576017003467486,0.13195409819792525,0,0
121,congruent,1,0.7078709,right,-0.34549354654798947,-0.5016298459040701,0.16449869643592946,0,0
121,congruent,1,0.7358536,left,-0.3067240930825623,-0.5016298459040701,0.16449869643592946,0,0
121,congruent,1,0.6320864,right,-0.4587291853183248,-0.5016298459040701,0.16449869643592946,0,0
121,incongruent,1,0.5829284,left,-0.5396909132098037,-0.35576017003467486,0.13195409819792525,0,0
121,incongruent,1,0.6569157,right,-0.4201995792323064,-0.35576017003467486,0.13195409819792525,0,0
121,incongruent,1,0.7239268,right,-0.32306499668024863,-0.35576017003467486,0.13195409819792525,0,0
121,congruent,1,0.5688106,right,-0.5642077649424169,-0.5016298459040701,0.16449869643592946,0,0
121,congruent,1,0.5049388,left,-0.6833180451694625,-0.5016298459040701,0.16449869643592946,0,0
121,incongruent,1,0.5429636,left,-0.6107129962859389,-0.35576017003467486,0.13195409819792525,0,0
121,incongruent,1,0.6928588,left,-0.3669290523562044,-0.35576017003467486,0.13195409819792525,0,0
121,congruent,1,0.5358974,left,-0.6238125541445293,-0.5016298459040701,0.16449869643592946,0,0
121,congruent,1,0.7028278,right,-0.35264336739004687,-0.5016298459040701,0.16449869643592946,0,0
122,incongruent,1,0.7005127,left,-0.35594278346221103,-0.42136303643121176,0.12332705235599756,0,0
122,congruent,1,0.6177459,left,-0.4816780711245158,-0.5586980911846684,0.13283680625434546,0,0
122,incongruent,1,0.7408898,left,-0.2999033826943787,-0.42136303643121176,0.12332705235599756,0,0
122,congruent,1,0.6538707,left,-0.42484565349344766,-0.5586980911846684,0.13283680625434546,0,0
122,congruent,1,0.53982,right,-0.6165195283250547,-0.5586980911846684,0.13283680625434546,0,0
122,incongruent,1,0.9619283,right,-0.038815363318627095,-0.42136303643121176,0.12332705235599756,0,0
122,congruent,1,0.6319181,right,-0.4589954818402036,-0.5586980911846684,0.13283680625434546,0,0
122,incongruent,1,0.658005,right,-0.418542748901496,-0.42136303643121176,0.12332705235599756,0,0
122,incongruent,1,0.6268749,right,-0.46700827978738546,-0.42136303643121176,0.12332705235599756,0,0
122,incongruent,1,0.6120029,right,-0.4910182579189464,-0.42136303643121176,0.12332705235599756,0,0
122,congruent,1,0.6489364,right,-0.43242056399839474,-0.5586980911846684,0.13283680625434546,0,0
122,congruent,1,0.5000565,right,-0.6930341869439643,-0.5586980911846684,0.13283680625434546,0,0
122,incongruent,1,0.7129503,left,-0.33834356646722596,-0.42136303643121176,0.12332705235599756,0,0
122,congruent,1,0.6568636,left,-0.42027889240161465,-0.5586980911846684,0.13283680625434546,0,0
122,incongruent,1,0.6148087,left,-0.4864441164744237,-0.42136303643121176,0.12332705235599756,0,0
122,congruent,1,0.6508478,left,-0.42947945827051,-0.5586980911846684,0.13283680625434546,0,0
122,congruent,1,0.6479401,right,-0.4339570251741476,-0.5586980911846684,0.13283680625434546,0,0
122,congruent,1,0.640902,right,-0.4448787198651852,-0.5586980911846684,0.13283680625434546,0,0
122,incongruent,1,0.6368644,right,-0.45119851891205726,-0.42136303643121176,0.12332705235599756,0,0
122,congruent,1,0.6478587,left,-0.43408266196298717,-0.5586980911846684,0.13283680625434546,0,0
122,incongruent,1,0.709013,right,-0.3438814169340441,-0.42136303643121176,0.12332705235599756,0,0
122,congruent,1,0.6418545,left,-0.4433936364919036,-0.5586980911846684,0.13283680625434546,0,0
122,incongruent,1,0.6769456,left,-0.39016436380362807,-0.42136303643121176,0.12332705235599756,0,0
122,incongruent,1,0.7798307,left,-0.2486784341395895,-0.42136303643121176,0.12332705235599756,0,0
122,incongruent,1,0.6439997,left,-0.44005701871640135,-0.42136303643121176,0.12332705235599756,0,0
122,incongruent,1,0.5817954,left,-0.5416364394493705,-0.42136303643121176,0.12332705235599756,0,0
122,congruent,1,0.5128647,left,-0.6677432112876459,-0.5586980911846684,0.13283680625434546,0,0
122,congruent,1,0.6449108,right,-0.43864326632358425,-0.5586980911846684,0.13283680625434546,0,0
122,congruent,1,0.4739482,left,-0.746657245959272,-0.5586980911846684,0.13283680625434546,0,0
122,incongruent,1,0.581987,right,-0.541307168269928,-0.42136303643121176,0.12332705235599756,0,0
122,congruent,1,0.50595,right,-0.6813174288063681,-0.5586980911846684,0.13283680625434546,0,0
122,incongruent,1,0.6640115,right,-0.40945581037857176,-0.42136303643121176,0.12332705235599756,0,0
122,incongruent,1,0.6769664,left,-0.3901336380252886,-0.42136303643121176,0.12332705235599756,0,0
122,incongruent,1,0.6407873,right,-0.44505770240066583,-0.42136303643121176,0.12332705235599756,0,0
122,congruent,1,0.4929589,left,-0.7073294755546395,-0.5586980911846684,0.13283680625434546,0,0
122,congruent,1,0.5588819,left,-0.5818170982729381,-0.5586980911846684,0.13283680625434546,0,0
122,incongruent,1,0.6949705,right,-0.3638858803613691,-0.42136303643121176,0.12332705235599756,0,0
122,incongruent,1,0.6119051,left,-0.491178073853164,-0.42136303643121176,0.12332705235599756,0,0
122,congruent,1,0.5729039,right,-0.5570372901200128,-0.5586980911846684,0.13283680625434546,0,0
122,congruent,1,0.4419169,right,-0.8166334236301296,-0.5586980911846684,0.13283680625434546,0,0
122,congruent,1,0.4529096,right,-0.7920627319124459,-0.5586980911846684,0.13283680625434546,0,0
122,incongruent,0,0.5047157,left,-0.6837599785310848,-0.42136303643121176,0.12332705235599756,0,0
122,incongruent,1,0.6258847,left,-0.4685891101497491,-0.42136303643121176,0.12332705235599756,0,0
122,congruent,1,0.5908877,left,-0.5261292965520149,-0.5586980911846684,0.13283680625434546,0,0
122,congruent,1,0.6099178,right,-0.4944310849932901,-0.5586980911846684,0.13283680625434546,0,0
122,incongruent,1,0.6349724,left,-0.4541737456009862,-0.42136303643121176,0.12332705235599756,0,0
122,congruent,1,0.5038943,left,-0.6853887551277711,-0.5586980911846684,0.13283680625434546,0,0
122,incongruent,1,0.5749127,right,-0.5535370757984901,-0.42136303643121176,0.12332705235599756,0,0
123,congruent,1,0.9383048,right,-0.0636804360645594,-0.3165836010124059,0.23074345762350623,0,0
123,incongruent,1,1.2989701,right,0.2615717197176234,-0.1655545868250907,0.23776146740539225,0,0
123,congruent,1,0.9248478,left,-0.07812609554853223,-0.3165836010124059,0.23074345762350623,0,0
123,congruent,1,0.846007,right,-0.1672276451784666,-0.3165836010124059,0.23074345762350623,0,0
123,incongruent,1,0.8448743,left,-0.16856742008689185,-0.1655545868250907,0.23776146740539225,0,0
123,congruent,1,0.7141059,left,-0.3367240083130456,-0.3165836010124059,0.23074345762350623,0,0
123,incongruent,1,0.9666169,left,-0.03395303575958474,-0.1655545868250907,0.23776146740539225,0,0
123,incongruent,1,0.6839709,right,-0.3798399061242513,-0.1655545868250907,0.23776146740539225,0,0
123,congruent,1,0.7588766,right,-0.2759160971496403,-0.3165836010124059,0.23074345762350623,0,0
123,congruent,1,0.8829565,left,-0.12447934346484114,-0.3165836010124059,0.23074345762350623,0,0
123,incongruent,1,0.9048723,left,-0.09996145021082987,-0.1655545868250907,0.23776146740539225,0,0
123,incongruent,1,0.8520238,right,-0.16014081827067536,-0.1655545868250907,0.23776146740539225,0,0
123,incongruent,1,0.8410244,left,-0.17313460635039318,-0.1655545868250907,0.23776146740539225,0,0
123,congruent,1,0.7429867,right,-0.2970771348283605,-0.3165836010124059,0.23074345762350623,0,0
123,incongruent,1,0.7899817,right,-0.23574549834633438,-0.1655545868250907,0.23776146740539225,0,0
123,congruent,1,0.701956,left,-0.3538845549833558,-0.3165836010124059,0.23074345762350623,0,0
123,congruent,1,1.2278505,right,0.20526507964270044,-0.3165836010124059,0.23074345762350623,0,0
123,incongruent,1,1.4879984,right,0.3974318611415048,-0.1655545868250907,0.23776146740539225,0,0
123,incongruent,1,0.751994,left,-0.2850269337875316,-0.1655545868250907,0.23776146740539225,0,0
123,congruent,1,0.8009335,left,-0.22197735658370107,-0.3165836010124059,0.23074345762350623,0,0
123,incongruent,1,0.7589784,right,-0.2757819604894815,-0.1655545868250907,0.23776146740539225,0,0
123,congruent,1,0.8879193,right,-0.11887441849803543,-0.3165836010124059,0.23074345762350623,0,0
123,incongruent,1,0.7398659,left,-0.30128632542178035,-0.1655545868250907,0.23776146740539225,0,0
123,congruent,1,0.6069775,left,-0.4992635561549621,-0.3165836010124059,0.23074345762350623,0,0
123,congruent,1,0.6239151,right,-0.47174097756170463,-0.3165836010124059,0.23074345762350623,0,0
123,incongruent,1,0.4368566,left,-0.8281502841914647,-0.1655545868250907,0.23776146740539225,0,0
123,congruent,1,0.5839557,left,-0.5379301551955179,-0.3165836010124059,0.23074345762350623,0,0
123,congruent,1,0.649905,right,-0.4309290806201223,-0.3165836010124059,0.23074345762350623,0,0
123,incongruent,1,0.9579259,right,-0.04298485264584333,-0.1655545868250907,0.23776146740539225,0,0
123,congruent,1,0.7480065,left,-0.290343611205844,-0.3165836010124059,0.23074345762350623,0,0
123,incongruent,1,0.8799613,right,-0.12787734974964085,-0.1655545868250907,0.23776146740539225,0,0
123,incongruent,1,0.7878702,left,-0.23842192350440367,-0.1655545868250907,0.23776146740539225,0,0
123,congruent,1,0.4559252,right,-0.7854265180106967,-0.3165836010124059,0.23074345762350623,0,0
123,congruent,1,0.4948884,right,-0.7034229963775979,-0.3165836010124059,0.23074345762350623,0,0
123,congruent,1,0.5380085,left,-0.619880919688654,-0.3165836010124059,0.23074345762350623,0,0
123,incongruent,1,1.0349935,left,0.034395146504375085,-0.1655545868250907,0.23776146740539225,0,0
123,congruent,1,0.7899814,left,-0.2357458781020389,-0.3165836010124059,0.23074345762350623,0,0
123,incongruent,1,0.977873,right,-0.0223754742301663,-0.1655545868250907,0.23776146740539225,0,0
123,incongruent,1,0.7240378,right,-0.3229116780145611,-0.1655545868250907,0.23776146740539225,0,0
123,incongruent,1,0.6329799,left,-0.45731661089661796,-0.1655545868250907,0.23776146740539225,0,0
123,congruent,1,0.7499727,left,-0.28771847311427695,-0.3165836010124059,0.23074345762350623,0,0
123,congruent,1,0.9308899,left,-0.07161426863388064,-0.3165836010124059,0.23074345762350623,0,0
123,congruent,1,0.7750137,right,-0.2548745723656789,-0.3165836010124059,0.23074345762350623,0,0
123,incongruent,1,0.7709613,left,-0.2601171012311255,-0.1655545868250907,0.23776146740539225,0,0
123,incongruent,1,0.9750286,right,-0.02528847508117033,-0.1655545868250907,0.23776146740539225,0,0
123,incongruent,1,0.8109339,left,-0.20956873250404104,-0.1655545868250907,0.23776146740539225,0,0
123,congruent,1,0.5619101,right,-0.5764134062969287,-0.3165836010124059,0.23074345762350623,0,0
123,incongruent,1,0.9819073,right,-0.018258374268890692,-0.1655545868250907,0.23776146740539225,0,0
124,congruent,1,0.4101198,right,-0.8913059668425132,-0.7687835432210658,0.12388335010386015,0,0
124,incongruent,1,0.6049818,right,-0.5025569040484155,-0.6286226601397219,0.21021671830797903,0,0
124,incongruent,0,0.3769423,right,-0.9756631536454116,-0.6286226601397219,0.21021671830797903,0,0
124,congruent,1,0.4628871,left,-0.7702720991232457,-0.7687835432210658,0.12388335010386015,0,0
124,congruent,1,0.369913,left,-0.9944874361276022,-0.7687835432210658,0.12388335010386015,0,0
124,incongruent,0,0.3938965,left,-0.9316670945486882,-0.6286226601397219,0.21021671830797903,0,0
124,incongruent,1,0.7759221,left,-0.2537031504359283,-0.6286226601397219,0.21021671830797903,0,0
124,congruent,1,0.4348082,right,-0.8328502646672858,-0.7687835432210658,0.12388335010386015,0,0
124,incongruent,1,0.4978558,left,-0.6974448021204953,-0.6286226601397219,0.21021671830797903,0,0
124,congruent,1,0.5038826,left,-0.6854119745526271,-0.7687835432210658,0.12388335010386015,0,0
124,incongruent,1,0.5109289,right,-0.6715248374024019,-0.6286226601397219,0.21021671830797903,0,0
124,congruent,1,0.3919718,left,-0.9365653805549026,-0.7687835432210658,0.12388335010386015,0,0
124,congruent,1,0.530812,right,-0.6333473693945486,-0.7687835432210658,0.12388335010386015,0,0
124,incongruent,1,0.5350457,left,-0.6254031151735113,-0.6286226601397219,0.21021671830797903,0,0
124,incongruent,0,0.5219478,left,-0.6501876960998317,-0.6286226601397219,0.21021671830797903,0,0
124,congruent,1,0.4508542,right,-0.7966112733426712,-0.7687835432210658,0.12388335010386015,0,0
124,congruent,1,0.4918575,right,-0.7095662385882404,-0.7687835432210658,0.12388335010386015,0,0
124,incongruent,1,0.5549537,right,-0.5888705921390534,-0.6286226601397219,0.21021671830797903,0,0
124,congruent,1,0.5387807,left,-0.6184466554289915,-0.7687835432210658,0.12388335010386015,0,0
124,congruent,1,0.4932195,left,-0.7068009707606473,-0.7687835432210658,0.12388335010386015,0,0
124,congruent,1,0.3658184,right,-1.0056182435796392,-0.7687835432210658,0.12388335010386015,0,0
124,incongruent,0,0.550001,right,-0.5978351825754552,-0.6286226601397219,0.21021671830797903,0,0
124,incongruent,1,0.6558102,right,-0.42188386117012855,-0.6286226601397219,0.21021671830797903,0,0
124,incongruent,1,0.5409259,left,-0.6144729780934175,-0.6286226601397219,0.21021671830797903,0,0
124,congruent,1,0.4879627,left,-0.7175163104764789,-0.7687835432210658,0.12388335010386015,0,0
124,incongruent,1,0.5879572,right,-0.5311011228484127,-0.6286226601397219,0.21021671830797903,0,0
124,congruent,1,0.4309427,left,-0.8417801443523074,-0.7687835432210658,0.12388335010386015,0,0
124,congruent,1,0.4509585,right,-0.7963799614517098,-0.7687835432210658,0.12388335010386015,0,0
124,incongruent,1,0.548962,left,-0.5997260566259381,-0.6286226601397219,0.21021671830797903,0,0
124,congruent,1,0.3937399,right,-0.9320647399649323,-0.7687835432210658,0.12388335010386015,0,0
124,incongruent,1,0.5220377,left,-0.6500154714851751,-0.6286226601397219,0.21021671830797903,0,0
124,incongruent,1,0.3639267,right,-1.0108028052501612,-0.6286226601397219,0.21021671830797903,0,0
124,congruent,1,0.4687715,left,-0.7576398360826931,-0.7687835432210658,0.12388335010386015,0,0
124,incongruent,1,0.5109804,left,-0.6714240456784326,-0.6286226601397219,0.21021671830797903,0,0
124,incongruent,0,0.468795,left,-0.7575897063052216,-0.6286226601397219,0.21021671830797903,0,0
124,incongruent,1,0.7379818,right,-0.30383611593237053,-0.6286226601397219,0.21021671830797903,0,0
124,congruent,1,0.5969395,left,-0.515939510758284,-0.7687835432210658,0.12388335010386015,0,0
124,incongruent,1,0.7179857,left,-0.33130562656678814,-0.6286226601397219,0.21021671830797903,0,0
124,congruent,1,0.4777229,right,-0.7387244216987873,-0.7687835432210658,0.12388335010386015,0,0
124,congruent,1,0.4798625,right,-0.7342556744505592,-0.7687835432210658,0.12388335010386015,0,0
124,congruent,1,0.4718951,right,-0.7509985638595428,-0.7687835432210658,0.12388335010386015,0,0
124,congruent,1,0.566986,left,-0.5674206669172462,-0.7687835432210658,0.12388335010386015,0,0
124,incongruent,1,0.5319395,left,-0.6312255179118186,-0.6286226601397219,0.21021671830797903,0,0
124,congruent,1,0.4659689,right,-0.7636363852810086,-0.7687835432210658,0.12388335010386015,0,0
124,incongruent,0,0.4389904,left,-0.8232777340276203,-0.6286226601397219,0.21021671830797903,0,0
124,incongruent,0,0.3948392,right,-0.929276685571672,-0.6286226601397219,0.21021671830797903,0,0
124,congruent,1,0.4708739,left,-0.7531649490491139,-0.7687835432210658,0.12388335010386015,0,0
124,incongruent,1,0.7289504,right,-0.3161495876969756,-0.6286226601397219,0.21021671830797903,0,0
125,incongruent,1,0.6500153,right,-0.4307593779079411,-0.42646720150841927,0.13719747995680012,0,0
125,incongruent,1,0.5610852,left,-0.5778825133330195,-0.42646720150841927,0.13719747995680012,0,0
125,incongruent,1,0.7458919,right,-0.2931745954445088,-0.42646720150841927,0.13719747995680012,0,0
125,incongruent,1,0.5893605,left,-0.5287172282300374,-0.42646720150841927,0.13719747995680012,0,0
125,congruent,1,0.7512516,left,-0.28601466335129383,-0.5795121342913842,0.16707364721402942,0,0
125,congruent,1,0.6439705,left,-0.440102361380393,-0.5795121342913842,0.16707364721402942,0,0
125,congruent,1,0.5367693,right,-0.6221868857201784,-0.5795121342913842,0.16707364721402942,0,0
125,congruent,1,0.8108995,right,-0.20961115363065633,-0.5795121342913842,0.16707364721402942,0,0
125,congruent,1,0.564939,left,-0.5710375182660632,-0.5795121342913842,0.16707364721402942,0,0
125,incongruent,1,0.6570133,right,-0.42005101717122156,-0.42646720150841927,0.13719747995680012,0,0
125,incongruent,1,0.6027565,right,-0.50624197807191,-0.42646720150841927,0.13719747995680012,0,0
125,congruent,1,0.4895835,left,-0.7142002493323036,-0.5795121342913842,0.16707364721402942,0,0
125,congruent,1,0.4697553,right,-0.7555433581550842,-0.5795121342913842,0.16707364721402942,0,0
125,incongruent,1,0.5829061,left,-0.5397291690685945,-0.42646720150841927,0.13719747995680012,0,0
125,congruent,1,0.4929732,right,-0.7073004674718294,-0.5795121342913842,0.16707364721402942,0,0
125,incongruent,1,0.8219863,left,-0.1960315507315143,-0.42646720150841927,0.13719747995680012,0,0
125,congruent,1,0.7259244,left,-0.32030940181088313,-0.5795121342913842,0.16707364721402942,0,0
125,incongruent,1,0.7967932,right,-0.22716010688471072,-0.42646720150841927,0.13719747995680012,0,0
125,congruent,1,0.541914,left,-0.6126479617188747,-0.5795121342913842,0.16707364721402942,0,0
125,incongruent,1,0.5528821,left,-0.5926105009136345,-0.42646720150841927,0.13719747995680012,0,0
125,congruent,1,0.5128713,right,-0.6677303424792972,-0.5795121342913842,0.16707364721402942,0,0
125,incongruent,1,0.7039274,right,-0.3510800531418431,-0.42646720150841927,0.13719747995680012,0,0
125,incongruent,1,0.5928843,left,-0.5227560086329097,-0.42646720150841927,0.13719747995680012,0,0
125,congruent,1,0.5005704,right,-0.6920070307778,-0.5795121342913842,0.16707364721402942,0,0
125,congruent,1,0.5570618,left,-0.585079093683486,-0.5795121342913842,0.16707364721402942,0,0
125,incongruent,1,0.5567257,left,-0.5856826199579358,-0.42646720150841927,0.13719747995680012,0,0
125,incongruent,1,0.6000395,left,-0.5107597925995763,-0.42646720150841927,0.13719747995680012,0,0
125,congruent,1,0.5728862,right,-0.5570681858311931,-0.5795121342913842,0.16707364721402942,0,0
125,incongruent,1,0.6779018,right,-0.3887528392898546,-0.42646720150841927,0.13719747995680012,0,0
125,congruent,1,0.596822,left,-0.5161363675012423,-0.5795121342913842,0.16707364721402942,0,0
125,congruent,1,0.4888636,right,-0.7156717650226326,-0.5795121342913842,0.16707364721402942,0,0
125,incongruent,1,0.6509337,right,-0.4293474852779231,-0.42646720150841927,0.13719747995680012,0,0
125,incongruent,1,0.5838516,right,-0.5381084380342631,-0.42646720150841927,0.13719747995680012,0,0
125,congruent,1,0.4449957,right,-0.8096906597839315,-0.5795121342913842,0.16707364721402942,0,0
125,incongruent,1,0.6569966,right,-0.4200764355489688,-0.42646720150841927,0.13719747995680012,0,0
125,congruent,1,0.4488363,right,-0.8010970456915104,-0.5795121342913842,0.16707364721402942,0,0
125,incongruent,1,0.5469909,left,-0.6033231128959796,-0.42646720150841927,0.13719747995680012,0,0
125,congruent,1,0.6909273,left,-0.36972067059022107,-0.5795121342913842,0.16707364721402942,0,0
125,congruent,1,0.538969,left,-0.6180972236417852,-0.5795121342913842,0.16707364721402942,0,0
125,incongruent,1,0.7938616,left,-0.2308461402330711,-0.42646720150841927,0.13719747995680012,0,0
125,incongruent,1,0.6119413,left,-0.4911189161026316,-0.42646720150841927,0.13719747995680012,0,0
125,incongruent,1,0.8938714,right,-0.1121933620304411,-0.42646720150841927,0.13719747995680012,0,0
125,congruent,1,0.5819625,right,-0.5413492663162841,-0.5795121342913842,0.16707364721402942,0,0
125,congruent,1,0.500982,right,-0.691185106686416,-0.5795121342913842,0.16707364721402942,0,0
125,incongruent,1,0.6709786,left,-0.39901803521650464,-0.42646720150841927,0.13719747995680012,0,0
125,congruent,1,0.4859072,left,-0.7217376198163052,-0.5795121342913842,0.16707364721402942,0,0
125,incongruent,1,0.7119187,right,-0.339791559483068,-0.42646720150841927,0.13719747995680012,0,0
125,congruent,1,0.6819719,left,-0.382766824333556,-0.5795121342913842,0.16707364721402942,0,0
127,congruent,1,0.5842472,right,-0.537431098043631,-0.6601818920790514,0.1123681360216589,0,0
127,incongruent,1,0.6440099,left,-0.44004118032513423,-0.49877837406027253,0.1053477924099276,0,0
127,incongruent,1,0.6099375,right,-0.4943987860804571,-0.49877837406027253,0.1053477924099276,0,0
127,congruent,1,0.5419541,left,-0.6125739674754455,-0.6601818920790514,0.1123681360216589,0,0
127,congruent,1,0.6528982,left,-0.4263340577239669,-0.6601818920790514,0.1123681360216589,0,0
127,incongruent,1,0.6580085,left,-0.41853742980712494,-0.49877837406027253,0.1053477924099276,0,0
127,congruent,1,0.4268718,right,-0.851271545024858,-0.6601818920790514,0.1123681360216589,0,0
127,incongruent,1,0.6668868,right,-0.40513496261218657,-0.49877837406027253,0.1053477924099276,0,0
127,incongruent,1,0.6029509,left,-0.5059195117725666,-0.49877837406027253,0.1053477924099276,0,0
127,congruent,1,0.5339515,left,-0.6274502681167261,-0.6601818920790514,0.1123681360216589,0,0
127,incongruent,1,0.6050305,left,-0.5024764089988589,-0.49877837406027253,0.1053477924099276,0,0
127,congruent,1,0.4898692,right,-0.7136168622874716,-0.6601818920790514,0.1123681360216589,0,0
127,incongruent,1,0.6121855,right,-0.49071993782155904,-0.49877837406027253,0.1053477924099276,0,0
127,congruent,1,0.5526401,left,-0.5930483030742161,-0.6601818920790514,0.1123681360216589,0,0
127,incongruent,1,0.6488973,right,-0.43248081825132684,-0.49877837406027253,0.1053477924099276,0,0
127,congruent,1,0.53291790000000006,right,-0.629387900451819,-0.6601818920790514,0.1123681360216589,0,0
127,incongruent,1,0.5329863,left,-0.6292595587113627,-0.49877837406027253,0.1053477924099276,0,0
127,incongruent,1,0.6557527,right,-0.42197154282083227,-0.49877837406027253,0.1053477924099276,0,0
127,congruent,1,0.6148738,left,-0.48633823548471966,-0.6601818920790514,0.1123681360216589,0,0
127,congruent,1,0.5458769,left,-0.6053617865321375,-0.6601818920790514,0.1123681360216589,0,0
127,congruent,1,0.421924,right,-0.8629300759518685,-0.6601818920790514,0.1123681360216589,0,0
127,congruent,1,0.4379997,right,-0.8255370535374323,-0.6601818920790514,0.1123681360216589,0,0
127,incongruent,1,0.5399225,left,-0.6163296682421037,-0.49877837406027253,0.1053477924099276,0,0
127,incongruent,1,0.5589221,right,-0.5817451715308308,-0.49877837406027253,0.1053477924099276,0,0
127,incongruent,1,0.4979201,right,-0.6973156565967096,-0.49877837406027253,0.1053477924099276,0,0
127,incongruent,1,0.6359026,right,-0.4527098720239429,-0.49877837406027253,0.1053477924099276,0,0
127,congruent,1,0.4449868,right,-0.8097106601771983,-0.6601818920790514,0.1123681360216589,0,0
127,congruent,1,0.4858658,left,-0.7218228249002601,-0.6601818920790514,0.1123681360216589,0,0
127,incongruent,1,0.7478083,left,-0.29060861727632814,-0.49877837406027253,0.1053477924099276,0,0
127,congruent,1,0.5710859,right,-0.5602156428123909,-0.6601818920790514,0.1123681360216589,0,0
127,incongruent,1,0.5559203,left,-0.5871303403302185,-0.49877837406027253,0.1053477924099276,0,0
127,congruent,1,0.5370348,left,-0.6216923821037175,-0.6601818920790514,0.1123681360216589,0,0
127,congruent,1,0.4969777,left,-0.6992101231074533,-0.6601818920790514,0.1123681360216589,0,0
127,congruent,1,0.5558709,left,-0.5872192059374163,-0.6601818920790514,0.1123681360216589,0,0
127,incongruent,1,0.6238941,right,-0.4717746365538036,-0.49877837406027253,0.1053477924099276,0,0
127,incongruent,1,0.6829587,right,-0.38132088976087153,-0.49877837406027253,0.1053477924099276,0,0
127,congruent,1,0.5418592,right,-0.6127490898885817,-0.6601818920790514,0.1123681360216589,0,0
127,incongruent,1,0.5808491,left,-0.543264280477241,-0.49877837406027253,0.1053477924099276,0,0
127,incongruent,1,0.5200949,left,-0.6537439840577631,-0.49877837406027253,0.1053477924099276,0,0
127,congruent,1,0.5209579,right,-0.652086046635797,-0.6601818920790514,0.1123681360216589,0,0
127,incongruent,1,0.5498028,right,-0.5981956105029557,-0.49877837406027253,0.1053477924099276,0,0
127,congruent,1,0.5008164,left,-0.6915157121286054,-0.6601818920790514,0.1123681360216589,0,0
127,congruent,1,0.4768756,left,-0.7404996187528572,-0.6601818920790514,0.1123681360216589,0,0
127,congruent,1,0.460772,right,-0.7748519353355443,-0.6601818920790514,0.1123681360216589,0,0
127,incongruent,1,0.6169608,right,-0.48294979032035373,-0.49877837406027253,0.1053477924099276,0,0
127,congruent,1,0.547983,right,-0.6015110144131207,-0.6601818920790514,0.1123681360216589,0,0
127,incongruent,1,0.5638974,left,-0.5728829589262164,-0.49877837406027253,0.1053477924099276,0,0
127,incongruent,1,0.7409891,left,-0.2997693636457931,-0.49877837406027253,0.1053477924099276,0,0
131,incongruent,1,0.5456271,left,-0.6058195035984261,-0.6693396385674546,0.14805794081849577,0,0
131,congruent,1,0.4638196,right,-0.7682595954589644,-0.7356956273040307,0.14512159582369039,0,0
131,incongruent,1,0.593938,left,-0.5209803421715383,-0.6693396385674546,0.14805794081849577,0,0
131,incongruent,1,0.5235972,right,-0.6470325925542736,-0.6693396385674546,0.14805794081849577,0,0
131,congruent,1,0.4338053,left,-0.8351594630521948,-0.7356956273040307,0.14512159582369039,0,0
131,congruent,1,0.3939035,left,-0.9316493235408176,-0.7356956273040307,0.14512159582369039,0,0
131,congruent,1,0.575734,right,-0.5521095305068272,-0.7356956273040307,0.14512159582369039,0,0
131,incongruent,1,0.5139324,right,-0.6656635396858857,-0.6693396385674546,0.14805794081849577,0,0
131,congruent,1,0.4229023,right,-0.8606140958805076,-0.7356956273040307,0.14512159582369039,0,0
131,incongruent,1,0.449775,right,-0.7990078212594539,-0.6693396385674546,0.14805794081849577,0,0
131,congruent,1,0.4059085,right,-0.9016275142380451,-0.7356956273040307,0.14512159582369039,0,0
131,congruent,1,0.3837205,left,-0.9578408559997772,-0.7356956273040307,0.14512159582369039,0,0
131,incongruent,0,0.4099267,right,-0.891776915754725,-0.6693396385674546,0.14805794081849577,0,0
131,congruent,1,0.4529474,left,-0.7919792750312341,-0.7356956273040307,0.14512159582369039,0,0
131,incongruent,1,0.5970262,right,-0.5157942804553493,-0.6693396385674546,0.14805794081849577,0,0
131,incongruent,1,0.4880937,left,-0.7172478833634831,-0.6693396385674546,0.14805794081849577,0,0
131,incongruent,1,0.3846042,left,-0.9555405254502677,-0.6693396385674546,0.14805794081849577,0,0
131,congruent,1,0.5408543,left,-0.6146053524890748,-0.7356956273040307,0.14512159582369039,0,0
131,congruent,1,0.3978042,right,-0.9217953545486196,-0.7356956273040307,0.14512159582369039,0,0
131,incongruent,1,0.4609333,right,-0.7745019319198178,-0.6693396385674546,0.14805794081849577,0,0
131,incongruent,1,0.6837849,left,-0.380111884501015,-0.6693396385674546,0.14805794081849577,0,0
131,congruent,1,0.4179039,right,-0.8725037771956472,-0.7356956273040307,0.14512159582369039,0,0
131,incongruent,1,0.5147739,right,-0.6640275038461178,-0.6693396385674546,0.14805794081849577,0,0
131,congruent,1,0.4489361,left,-0.8008747176261543,-0.7356956273040307,0.14512159582369039,0,0
131,incongruent,1,0.5337551,right,-0.6278181594498229,-0.6693396385674546,0.14805794081849577,0,0
131,incongruent,1,0.5109555,left,-0.6714727767192052,-0.6693396385674546,0.14805794081849577,0,0
131,incongruent,1,0.5329053,right,-0.629411544148073,-0.6693396385674546,0.14805794081849577,0,0
131,incongruent,0,0.3918191,right,-0.9369550252979889,-0.6693396385674546,0.14805794081849577,0,0
131,congruent,1,0.5568777,left,-0.5854096322839686,-0.7356956273040307,0.14512159582369039,0,0
131,congruent,1,0.4949181,left,-0.7033629846480145,-0.7356956273040307,0.14512159582369039,0,0
131,congruent,1,0.4378929,right,-0.8257809190536596,-0.7356956273040307,0.14512159582369039,0,0
131,congruent,1,0.5630947,right,-0.5743074589484201,-0.7356956273040307,0.14512159582369039,0,0
131,incongruent,1,0.47866,right,-0.7367647457156685,-0.6693396385674546,0.14805794081849577,0,0
131,congruent,1,0.5868315,left,-0.5330175531724878,-0.7356956273040307,0.14512159582369039,0,0
131,incongruent,1,0.5739806,left,-0.5551596811431406,-0.6693396385674546,0.14805794081849577,0,0
131,congruent,1,0.6390082,right,-0.44783799213607794,-0.7356956273040307,0.14512159582369039,0,0
131,congruent,1,0.5387659,left,-0.6184741252386515,-0.7356956273040307,0.14512159582369039,0,0
131,incongruent,1,0.5828672,right,-0.5397959058861462,-0.6693396385674546,0.14805794081849577,0,0
131,incongruent,1,0.542911,left,-0.6108098767176962,-0.6693396385674546,0.14805794081849577,0,0
131,congruent,1,0.4687444,right,-0.7576976484355451,-0.7356956273040307,0.14512159582369039,0,0
131,incongruent,1,0.4629682,left,-0.7700969097600538,-0.6693396385674546,0.14805794081849577,0,0
131,congruent,1,0.5669264,left,-0.567525789676385,-0.7356956273040307,0.14512159582369039,0,0
131,congruent,1,0.5059043,left,-0.6814077580168703,-0.7356956273040307,0.14512159582369039,0,0
131,incongruent,1,0.6417453,right,-0.4435637829818976,-0.6693396385674546,0.14805794081849577,0,0
131,incongruent,1,0.5630471,right,-0.5743919953718585,-0.6693396385674546,0.14805794081849577,0,0
131,congruent,1,0.4428245,right,-0.8145817499583239,-0.7356956273040307,0.14512159582369039,0,0
131,congruent,1,0.4779388,right,-0.7382725881604691,-0.7356956273040307,0.14512159582369039,0,0
131,incongruent,1,0.4358722,left,-0.8304061978670065,-0.6693396385674546,0.14805794081849577,0,0
132,incongruent,1,0.5488846,right,-0.5998670599320981,-0.6838168151872749,0.118508011307643,0,0
132,congruent,1,0.4469039,right,-0.8054116962962938,-0.7999460627107015,0.11890435203071145,0,0
132,congruent,1,0.4750394,right,-0.7443575310190176,-0.7999460627107015,0.11890435203071145,0,0
132,congruent,1,0.3527275,left,-1.042059474833499,-0.7999460627107015,0.11890435203071145,0,0
132,incongruent,1,0.640927,left,-0.44483971310218756,-0.6838168151872749,0.118508011307643,0,0
132,incongruent,1,0.4939483,right,-0.7053244231414676,-0.6838168151872749,0.118508011307643,0,0
132,incongruent,0,0.4057819,right,-0.9019394558380113,-0.6838168151872749,0.118508011307643,0,0
132,congruent,1,0.4849334,left,-0.7237437170614804,-0.7999460627107015,0.11890435203071145,0,0
132,congruent,1,0.5489109,left,-0.5998191457258456,-0.7999460627107015,0.11890435203071145,0,0
132,congruent,1,0.4658695,right,-0.7638497269942864,-0.7999460627107015,0.11890435203071145,0,0
132,congruent,1,0.4149438,left,-0.8796121896085304,-0.7999460627107015,0.11890435203071145,0,0
132,incongruent,1,0.4728801,right,-0.7489134109959049,-0.6838168151872749,0.118508011307643,0,0
132,incongruent,1,0.5228736,left,-0.6484155267275425,-0.6838168151872749,0.118508011307643,0,0
132,incongruent,1,0.4189091,right,-0.8701013277033919,-0.6838168151872749,0.118508011307643,0,0
132,congruent,1,0.4739125,right,-0.7467325734837,-0.7999460627107015,0.11890435203071145,0,0
132,incongruent,1,0.5038039,left,-0.6855681739264602,-0.6838168151872749,0.118508011307643,0,0
132,incongruent,1,0.4979835,right,-0.697188335036499,-0.6838168151872749,0.118508011307643,0,0
132,congruent,1,0.447038,left,-0.8051116767961319,-0.7999460627107015,0.11890435203071145,0,0
132,incongruent,1,0.4718773,right,-0.7510362848185412,-0.6838168151872749,0.118508011307643,0,0
132,incongruent,1,0.4989793,left,-0.6951906670569923,-0.6838168151872749,0.118508011307643,0,0
132,congruent,1,0.4828196,left,-0.7281121940624787,-0.7999460627107015,0.11890435203071145,0,0
132,incongruent,1,0.6049783,left,-0.5025626893631545,-0.6838168151872749,0.118508011307643,0,0
132,congruent,1,0.4518147,right,-0.7944831389569509,-0.7999460627107015,0.11890435203071145,0,0
132,congruent,1,0.4648806,right,-0.7659746805604668,-0.7999460627107015,0.11890435203071145,0,0
132,incongruent,1,0.5119387,left,-0.6695503876729263,-0.6838168151872749,0.118508011307643,0,0
132,congruent,1,0.3429417,right,-1.0701948171083593,-0.7999460627107015,0.11890435203071145,0,0
132,congruent,1,0.3929514,right,-0.9340693388820512,-0.7999460627107015,0.11890435203071145,0,0
132,incongruent,1,0.5490619,right,-0.5995440933730879,-0.6838168151872749,0.118508011307643,0,0
132,congruent,1,0.3797997,left,-0.968111270493679,-0.7999460627107015,0.11890435203071145,0,0
132,incongruent,1,0.5728755,left,-0.5570868633624814,-0.6838168151872749,0.118508011307643,0,0
132,incongruent,0,0.4019776,left,-0.9113589133086454,-0.6838168151872749,0.118508011307643,0,0
132,congruent,1,0.4957626,left,-0.701658095868905,-0.7999460627107015,0.11890435203071145,0,0
132,congruent,1,0.4800734,left,-0.7338162701040956,-0.7999460627107015,0.11890435203071145,0,0
132,incongruent,1,0.5319292,right,-0.6312448812035488,-0.6838168151872749,0.118508011307643,0,0
132,congruent,1,0.4478521,right,-0.8032922350019254,-0.7999460627107015,0.11890435203071145,0,0
132,incongruent,1,0.4375802,left,-0.8264952756987642,-0.6838168151872749,0.118508011307643,0,0
132,congruent,1,0.4109637,right,-0.8892503895543297,-0.7999460627107015,0.11890435203071145,0,0
132,incongruent,1,0.5078596,left,-0.677550247555836,-0.6838168151872749,0.118508011307643,0,0
132,congruent,1,0.4219028,left,-0.862980323230112,-0.7999460627107015,0.11890435203071145,0,0
132,incongruent,1,0.579889,right,-0.5449185730673739,-0.6838168151872749,0.118508011307643,0,0
132,incongruent,1,0.4548556,left,-0.7877752730387284,-0.6838168151872749,0.118508011307643,0,0
132,congruent,1,0.4371578,right,-0.8274610506687137,-0.7999460627107015,0.11890435203071145,0,0
132,incongruent,1,0.5349446,left,-0.6255920888498162,-0.6838168151872749,0.118508011307643,0,0
132,congruent,1,0.5378503,left,-0.6201750103279464,-0.7999460627107015,0.11890435203071145,0,0
132,congruent,1,0.4990038,right,-0.6951415680291532,-0.7999460627107015,0.11890435203071145,0,0
132,congruent,1,0.4999299,left,-0.693287390388884,-0.7999460627107015,0.11890435203071145,0,0
132,incongruent,1,0.5069481,right,-0.6793466474947042,-0.6838168151872749,0.118508011307643,0,0
132,incongruent,1,0.5219449,right,-0.6501932522264335,-0.6838168151872749,0.118508011307643,0,0
134,incongruent,1,0.6270801,right,-0.4666809953125332,-0.3093344465734053,0.1310808287839043,0,0
134,congruent,1,0.6039234,right,-0.5043079102818624,-0.41093194271752154,0.1324689600244778,0,0
134,congruent,1,0.51981,right,-0.654291918791272,-0.41093194271752154,0.1324689600244778,0,0
134,congruent,1,0.5579027,left,-0.5835707045653801,-0.41093194271752154,0.1324689600244778,0,0
134,incongruent,1,0.6249426,left,-0.47009547346328656,-0.3093344465734053,0.1310808287839043,0,0
134,incongruent,1,0.6317609,left,-0.4592442792022092,-0.3093344465734053,0.1310808287839043,0,0
134,incongruent,1,0.8738134,right,-0.1348884272653802,-0.3093344465734053,0.1310808287839043,0,0
134,congruent,1,0.608881,left,-0.4961324326646071,-0.41093194271752154,0.1324689600244778,0,0
134,congruent,1,0.7259518,right,-0.32027165754590614,-0.41093194271752154,0.1324689600244778,0,0
134,incongruent,1,0.802916,left,-0.21950517822819074,-0.3093344465734053,0.1310808287839043,0,0
134,congruent,1,0.6539003,left,-0.424800385629265,-0.41093194271752154,0.1324689600244778,0,0
134,congruent,1,0.5728885,left,-0.5570641710803002,-0.41093194271752154,0.1324689600244778,0,0
134,congruent,1,0.7989612,right,-0.22444289509584744,-0.41093194271752154,0.1324689600244778,0,0
134,incongruent,1,0.7039254,right,-0.35108289434796913,-0.3093344465734053,0.1310808287839043,0,0
134,incongruent,1,0.6298758,left,-0.462232621888909,-0.3093344465734053,0.1310808287839043,0,0
134,incongruent,1,0.8047711,right,-0.21719738982416895,-0.3093344465734053,0.1310808287839043,0,0
134,congruent,1,0.7998855,right,-0.22328668655756995,-0.41093194271752154,0.1324689600244778,0,0
134,congruent,1,0.6607836,right,-0.4143288754852874,-0.41093194271752154,0.1324689600244778,0,0
134,incongruent,1,0.6319613,left,-0.4589271208873837,-0.3093344465734053,0.1310808287839043,0,0
134,congruent,1,0.5699739,left,-0.5621647086755953,-0.41093194271752154,0.1324689600244778,0,0
134,incongruent,1,0.8268937,right,-0.19007912910030875,-0.3093344465734053,0.1310808287839043,0,0
134,congruent,1,0.63391,left,-0.45584829045755665,-0.41093194271752154,0.1324689600244778,0,0
134,incongruent,1,0.5938663,left,-0.5211010691298211,-0.3093344465734053,0.1310808287839043,0,0
134,incongruent,1,0.8369573,right,-0.1779822253256589,-0.3093344465734053,0.1310808287839043,0,0
134,congruent,1,0.8019452,right,-0.22071500262722446,-0.41093194271752154,0.1324689600244778,0,0
134,incongruent,1,0.6619347,left,-0.41258836839380497,-0.3093344465734053,0.1310808287839043,0,0
134,congruent,1,0.5879562,left,-0.531102823653931,-0.41093194271752154,0.1324689600244778,0,0
134,incongruent,1,0.6889276,right,-0.37261909331558474,-0.3093344465734053,0.1310808287839043,0,0
134,congruent,1,0.6979956,right,-0.35954247996456146,-0.41093194271752154,0.1324689600244778,0,0
134,incongruent,1,0.735863,right,-0.30671131888405134,-0.3093344465734053,0.1310808287839043,0,0
134,incongruent,1,0.8098821,left,-0.21086659746544603,-0.3093344465734053,0.1310808287839043,0,0
134,congruent,1,0.6948293,left,-0.3640890750955832,-0.41093194271752154,0.1324689600244778,0,0
134,congruent,1,0.8098468,right,-0.21091018500655326,-0.41093194271752154,0.1324689600244778,0,0
134,congruent,1,0.5829517,left,-0.5396509434050132,-0.41093194271752154,0.1324689600244778,0,0
134,incongruent,1,0.8188712,right,-0.19982847245376262,-0.3093344465734053,0.1310808287839043,0,0
134,incongruent,1,0.9198291,right,-0.08356738706430364,-0.3093344465734053,0.1310808287839043,0,0
134,congruent,1,0.6768629,right,-0.39028653765628574,-0.41093194271752154,0.1324689600244778,0,0
134,incongruent,1,0.6788429,left,-0.3873655478547968,-0.3093344465734053,0.1310808287839043,0,0
134,incongruent,1,0.7489039,left,-0.28914460810250653,-0.3093344465734053,0.1310808287839043,0,0
134,congruent,1,0.6228575,left,-0.4734375183000394,-0.41093194271752154,0.1324689600244778,0,0
134,incongruent,1,0.7079031,left,-0.3454480590619845,-0.3093344465734053,0.1310808287839043,0,0
134,incongruent,1,0.8998247,right,-0.10555531240725895,-0.3093344465734053,0.1310808287839043,0,0
134,congruent,1,0.625849,left,-0.46864615103633644,-0.41093194271752154,0.1324689600244778,0,0
134,congruent,1,0.7449556,right,-0.2944306596940043,-0.41093194271752154,0.1324689600244778,0,0
134,congruent,1,0.8088366,right,-0.21215836007420716,-0.41093194271752154,0.1324689600244778,0,0
134,congruent,1,0.6859941,left,-0.37688625187632735,-0.41093194271752154,0.1324689600244778,0,0
134,incongruent,1,0.6878562,left,-0.37417547452267474,-0.3093344465734053,0.1310808287839043,0,0
134,incongruent,1,0.8129061,right,-0.20713967425973356,-0.3093344465734053,0.1310808287839043,0,0
135,incongruent,1,0.9148071,left,-0.08904205560433777,-0.400614837625299,0.15448863589370754,0,0
135,congruent,1,0.7068498,left,-0.3469370826145978,-0.46804800388150675,0.16281610342839004,0,0
135,incongruent,1,0.7709118,left,-0.26018130884979,-0.400614837625299,0.15448863589370754,0,0
135,incongruent,1,0.6949651,right,-0.3638936505055399,-0.400614837625299,0.15448863589370754,0,0
135,congruent,1,0.7596552,right,-0.27489063285810583,-0.46804800388150675,0.16281610342839004,0,0
135,congruent,1,0.7250393,left,-0.3215294187000512,-0.46804800388150675,0.16281610342839004,0,0
135,congruent,1,0.7028772,right,-0.35257308237289137,-0.46804800388150675,0.16281610342839004,0,0
135,incongruent,1,0.7629312,right,-0.27058742214335174,-0.400614837625299,0.15448863589370754,0,0
135,incongruent,1,0.6259337,right,-0.46851082403408706,-0.400614837625299,0.15448863589370754,0,0
135,congruent,1,0.6709958,right,-0.3989924013445008,-0.46804800388150675,0.16281610342839004,0,0
135,congruent,1,0.6608774,right,-0.41418693288403424,-0.46804800388150675,0.16281610342839004,0,0
135,incongruent,1,0.8369727,left,-0.1779638255120461,-0.400614837625299,0.15448863589370754,0,0
135,incongruent,1,0.7468057,right,-0.2919502347780841,-0.400614837625299,0.15448863589370754,0,0
135,congruent,1,0.5840443,left,-0.5377784428664598,-0.46804800388150675,0.16281610342839004,0,0
135,incongruent,1,0.7613733,left,-0.27263150263047653,-0.400614837625299,0.15448863589370754,0,0
135,congruent,1,0.6237548,left,-0.47199793655523636,-0.46804800388150675,0.16281610342839004,0,0
135,incongruent,1,0.6379325,left,-0.44952280060753635,-0.400614837625299,0.15448863589370754,0,0
135,incongruent,1,0.6518268,right,-0.427976396516926,-0.400614837625299,0.15448863589370754,0,0
135,congruent,1,0.4807467,left,-0.7324147588113781,-0.46804800388150675,0.16281610342839004,0,0
135,incongruent,1,0.5899038,left,-0.5277958062240641,-0.400614837625299,0.15448863589370754,0,0
135,incongruent,1,0.5769757,right,-0.5499551277456218,-0.400614837625299,0.15448863589370754,0,0
135,congruent,1,0.7918668,left,-0.2333620831300409,-0.46804800388150675,0.16281610342839004,0,0
135,congruent,1,0.4896408,right,-0.7140832179227168,-0.46804800388150675,0.16281610342839004,0,0
135,congruent,1,0.6098426,right,-0.4945543878978527,-0.46804800388150675,0.16281610342839004,0,0
135,incongruent,1,0.6858272,left,-0.3771295780308689,-0.400614837625299,0.15448863589370754,0,0
135,congruent,1,0.483958,right,-0.7257571528903389,-0.46804800388150675,0.16281610342839004,0,0
135,congruent,1,0.6168987,left,-0.48305045007951175,-0.46804800388150675,0.16281610342839004,0,0
135,congruent,1,0.5959348,left,-0.5176240138741176,-0.46804800388150675,0.16281610342839004,0,0
135,incongruent,1,0.5585267,left,-0.5824528549906938,-0.400614837625299,0.15448863589370754,0,0
135,congruent,1,0.6050067,right,-0.5025157466324508,-0.46804800388150675,0.16281610342839004,0,0
135,incongruent,1,0.5688129,right,-0.5642037214253834,-0.400614837625299,0.15448863589370754,0,0
135,incongruent,1,0.5108869,right,-0.6716070439997625,-0.400614837625299,0.15448863589370754,0,0
135,congruent,1,0.7298564,left,-0.31490747651887524,-0.46804800388150675,0.16281610342839004,0,0
135,congruent,1,0.5319393,right,-0.6312258938944963,-0.46804800388150675,0.16281610342839004,0,0
135,incongruent,1,0.5898485,left,-0.5278895547169308,-0.400614837625299,0.15448863589370754,0,0
135,incongruent,1,0.6268939,right,-0.4669779711690797,-0.400614837625299,0.15448863589370754,0,0
135,congruent,1,0.5898326,left,-0.5279165111545662,-0.46804800388150675,0.16281610342839004,0,0
135,incongruent,1,0.6779475,left,-0.3886854276681982,-0.400614837625299,0.15448863589370754,0,0
135,incongruent,1,0.8478687,right,-0.1650294900840558,-0.400614837625299,0.15448863589370754,0,0
135,congruent,1,0.6699021,right,-0.4006236966765905,-0.46804800388150675,0.16281610342839004,0,0
135,congruent,1,0.6249494,right,-0.47008459252317325,-0.46804800388150675,0.16281610342839004,0,0
135,incongruent,1,0.6019602,left,-0.5075639488156846,-0.400614837625299,0.15448863589370754,0,0
135,congruent,1,0.8988762,left,-0.10660996255828409,-0.46804800388150675,0.16281610342839004,0,0
135,incongruent,1,0.8248727,right,-0.19252620758369643,-0.400614837625299,0.15448863589370754,0,0
135,congruent,1,0.4918571,right,-0.7095670518322443,-0.46804800388150675,0.16281610342839004,0,0
135,incongruent,1,0.5869357,right,-0.53284000518806,-0.400614837625299,0.15448863589370754,0,0
135,congruent,1,0.5769676,left,-0.5499691665636471,-0.46804800388150675,0.16281610342839004,0,0
135,incongruent,1,0.6139515,left,-0.4878393441829,-0.400614837625299,0.15448863589370754,0,0
136,incongruent,1,1.1243055,left,0.11716551169436953,-0.18134862483643657,0.13994703967754932,0,0
136,congruent,1,0.9769669,right,-0.023302506735376646,-0.29393818482556616,0.12886638721092866,0,0
136,congruent,1,0.8996781,right,-0.1057182463024708,-0.29393818482556616,0.12886638721092866,0,0
136,congruent,1,0.8984815,left,-0.1070491628425065,-0.29393818482556616,0.12886638721092866,0,0
136,incongruent,1,0.9260923,right,-0.07678137327736476,-0.18134862483643657,0.13994703967754932,0,0
136,incongruent,1,0.8713156,left,-0.13775102562421618,-0.18134862483643657,0.13994703967754932,0,0
136,congruent,1,0.8137725,left,-0.2060744360720206,-0.29393818482556616,0.12886638721092866,0,0
136,incongruent,1,0.8529204,right,-0.15908905354705302,-0.18134862483643657,0.13994703967754932,0,0
136,congruent,1,0.724798,right,-0.321862283639073,-0.29393818482556616,0.12886638721092866,0,0
136,incongruent,1,0.7906971,left,-0.2348403175482531,-0.18134862483643657,0.13994703967754932,0,0
136,incongruent,1,0.8029101,right,-0.2195125264709426,-0.18134862483643657,0.13994703967754932,0,0
136,incongruent,1,0.8247866,left,-0.19263059277411504,-0.18134862483643657,0.13994703967754932,0,0
136,congruent,1,0.6568933,left,-0.4202336785572496,-0.29393818482556616,0.12886638721092866,0,0
136,incongruent,1,0.9048682,right,-0.09996598124718559,-0.18134862483643657,0.13994703967754932,0,0
136,congruent,1,0.9819151,right,-0.018250430577037454,-0.29393818482556616,0.12886638721092866,0,0
136,congruent,1,0.6488948,left,-0.43248467094853466,-0.29393818482556616,0.12886638721092866,0,0
136,incongruent,1,0.6207945,left,-0.47675516968845644,-0.18134862483643657,0.13994703967754932,0,0
136,congruent,1,0.7478497,left,-0.2905532570268452,-0.29393818482556616,0.12886638721092866,0,0
136,congruent,1,0.6209826,left,-0.4764522167648783,-0.29393818482556616,0.12886638721092866,0,0
136,congruent,1,0.8314531,right,-0.184580386028921,-0.29393818482556616,0.12886638721092866,0,0
136,incongruent,1,0.9517815,right,-0.04941978734050762,-0.18134862483643657,0.13994703967754932,0,0
136,incongruent,1,0.929851,right,-0.07273092072440163,-0.18134862483643657,0.13994703967754932,0,0
136,congruent,1,0.6618389,right,-0.41273310613471054,-0.29393818482556616,0.12886638721092866,0,0
136,incongruent,1,0.9298522,left,-0.07272963019589145,-0.18134862483643657,0.13994703967754932,0,0
136,congruent,1,0.6947672,right,-0.36417845355910305,-0.29393818482556616,0.12886638721092866,0,0
136,incongruent,1,0.8298414,right,-0.18652068078778092,-0.18134862483643657,0.13994703967754932,0,0
136,congruent,1,0.7060291,left,-0.3480988242080272,-0.29393818482556616,0.12886638721092866,0,0
136,incongruent,1,0.9826716,right,-0.017480294000839926,-0.18134862483643657,0.13994703967754932,0,0
136,congruent,1,0.7078742,left,-0.3454888846918403,-0.29393818482556616,0.12886638721092866,0,0
136,congruent,1,0.6429671,right,-0.4416617224610279,-0.29393818482556616,0.12886638721092866,0,0
136,incongruent,1,0.8369434,left,-0.17799883324033428,-0.18134862483643657,0.13994703967754932,0,0
136,incongruent,1,0.8078157,left,-0.21342134053785392,-0.18134862483643657,0.13994703967754932,0,0
136,incongruent,1,0.7679785,right,-0.26399354101799305,-0.18134862483643657,0.13994703967754932,0,0
136,incongruent,1,0.6798493,left,-0.3858841230198631,-0.18134862483643657,0.13994703967754932,0,0
136,congruent,1,0.7469578,left,-0.2917465880823044,-0.29393818482556616,0.12886638721092866,0,0
136,congruent,1,0.6938445,left,-0.36550740698186296,-0.29393818482556616,0.12886638721092866,0,0
136,incongruent,1,0.9248815,right,-0.07808965778436451,-0.18134862483643657,0.13994703967754932,0,0
136,congruent,1,0.7169171,right,-0.3327950657086604,-0.29393818482556616,0.12886638721092866,0,0
136,congruent,1,0.8189429,right,-0.19974091672928104,-0.29393818482556616,0.12886638721092866,0,0
136,incongruent,1,0.7259987,left,-0.32020705479255296,-0.18134862483643657,0.13994703967754932,0,0
136,congruent,1,0.7158972,right,-0.33421869774842294,-0.29393818482556616,0.12886638721092866,0,0
136,incongruent,1,0.7368631,right,-0.30535315709995275,-0.18134862483643657,0.13994703967754932,0,0
136,congruent,1,0.6909117,right,-0.3697432491974259,-0.29393818482556616,0.12886638721092866,0,0
136,congruent,1,0.6998841,left,-0.35684052907576597,-0.29393818482556616,0.12886638721092866,0,0
136,congruent,1,0.7369747,left,-0.305201715740241,-0.29393818482556616,0.12886638721092866,0,0
136,incongruent,1,0.7378512,right,-0.3040131007271825,-0.18134862483643657,0.13994703967754932,0,0
136,incongruent,1,0.9749911,left,-0.0253269362310804,-0.18134862483643657,0.13994703967754932,0,0
136,incongruent,1,0.6709656,left,-0.3990374100906616,-0.18134862483643657,0.13994703967754932,0,0
