subject_id,trial_condition,trial_cue,trial_corr_resp,trial_shift,resp_corr,resp_rt,resp_value,mean_rt,sd_rt,exclude_thresh,exclude_trial,exclude_part
118,shape,shape,right,0,1,0.5424888,right,0.79939122,0.35898990155623955,2,0,0
118,shape,shape,left,0,1,0.5518688,left,0.79939122,0.35898990155623955,2,0,0
118,shape,shape,left,0,1,0.679866,left,0.79939122,0.35898990155623955,2,0,0
118,shape,shape,right,0,1,0.5837787,right,0.79939122,0.35898990155623955,2,0,0
118,shape,shape,right,0,1,0.6799609,right,0.79939122,0.35898990155623955,2,0,0
118,shape,shape,right,0,1,0.7438599,right,0.79939122,0.35898990155623955,2,0,0
118,shape,shape,right,0,1,0.7118802,right,0.79939122,0.35898990155623955,2,0,0
118,shape,shape,left,0,1,0.6477835,left,0.79939122,0.35898990155623955,2,0,0
118,shape,shape,left,0,1,0.9199043,left,0.79939122,0.35898990155623955,2,0,0
118,shape,shape,right,0,1,2.1357883,right,0.79939122,0.35898990155623955,2,1,0
118,shape,shape,right,0,1,0.9679464,right,0.79939122,0.35898990155623955,2,0,0
118,shape,shape,right,0,1,0.5197671,right,0.79939122,0.35898990155623955,2,0,0
118,shape,shape,left,0,1,0.5519427,left,0.79939122,0.35898990155623955,2,0,0
118,shape,shape,left,0,1,0.5838036,left,0.79939122,0.35898990155623955,2,0,0
118,shape,shape,right,0,1,0.8079403,right,0.79939122,0.35898990155623955,2,0,0
118,shape,shape,left,0,1,0.6798824,left,0.79939122,0.35898990155623955,2,0,0
118,shape,shape,right,0,1,0.8078336,right,0.79939122,0.35898990155623955,2,0,0
118,shape,shape,left,0,1,0.9838398,left,0.79939122,0.35898990155623955,2,0,0
118,shape,shape,left,0,1,0.7118982,left,0.79939122,0.35898990155623955,2,0,0
118,shape,shape,left,0,1,1.1757909,left,0.79939122,0.35898990155623955,2,0,0
118,color,color,left,0,1,1.0319026,left,0.658256615,0.134520006485861,2,0,0
118,color,color,right,0,1,0.5518632,right,0.658256615,0.134520006485861,2,0,0
118,color,color,right,0,1,0.6637466,right,0.658256615,0.134520006485861,2,0,0
118,color,color,left,0,1,0.6159666,left,0.658256615,0.134520006485861,2,0,0
118,color,color,right,0,1,0.5517655,right,0.658256615,0.134520006485861,2,0,0
118,color,color,right,0,1,0.6478825,right,0.658256615,0.134520006485861,2,0,0
118,color,color,left,0,1,0.6959057,left,0.658256615,0.134520006485861,2,0,0
118,color,color,right,0,1,0.5997771,right,0.658256615,0.134520006485861,2,0,0
118,color,color,left,0,1,0.5679138,left,0.658256615,0.134520006485861,2,0,0
118,color,color,left,0,1,0.7119008,left,0.658256615,0.134520006485861,2,0,0
118,color,color,left,0,1,0.5198728,left,0.658256615,0.134520006485861,2,0,0
118,color,color,right,0,1,0.6798536,right,0.658256615,0.134520006485861,2,0,0
118,color,color,right,0,1,0.7758033,right,0.658256615,0.134520006485861,2,0,0
118,color,color,left,0,1,0.6638606,left,0.658256615,0.134520006485861,2,0,0
118,color,color,left,0,1,0.8399367,left,0.658256615,0.134520006485861,2,0,0
118,color,color,left,0,1,0.5037239,left,0.658256615,0.134520006485861,2,0,0
118,color,color,right,0,1,0.6639152,right,0.658256615,0.134520006485861,2,0,0
118,color,color,right,0,1,0.5518864,right,0.658256615,0.134520006485861,2,0,0
118,color,color,left,0,1,0.8398687,left,0.658256615,0.134520006485861,2,0,0
118,color,color,right,0,1,0.4877867,right,0.658256615,0.134520006485861,2,0,0
118,shift,shape,right,1,1,0.8559318,right,0.8761089046875,0.3562371533906112,6.4,0,0
118,shift,shape,right,0,1,0.7278854,right,0.8761089046875,0.3562371533906112,6.4,0,0
118,shift,color,right,1,1,0.7761572,right,0.8761089046875,0.3562371533906112,6.4,0,0
118,shift,color,right,0,1,0.8075452,right,0.8761089046875,0.3562371533906112,6.4,0,0
118,shift,shape,right,1,1,1.3517726,right,0.8761089046875,0.3562371533906112,6.4,0,0
118,shift,color,left,1,1,0.7278554,left,0.8761089046875,0.3562371533906112,6.4,0,0
118,shift,color,left,0,1,0.5998837,left,0.8761089046875,0.3562371533906112,6.4,0,0
118,shift,color,right,0,1,0.5838843,right,0.8761089046875,0.3562371533906112,6.4,0,0
118,shift,shape,left,1,1,0.8238635,left,0.8761089046875,0.3562371533906112,6.4,0,0
118,shift,shape,right,0,1,1.0958454,right,0.8761089046875,0.3562371533906112,6.4,0,0
118,shift,color,left,1,1,0.6477984,left,0.8761089046875,0.3562371533906112,6.4,0,0
118,shift,shape,right,1,1,0.8402842,right,0.8761089046875,0.3562371533906112,6.4,0,0
118,shift,shape,right,0,1,0.5834748,right,0.8761089046875,0.3562371533906112,6.4,0,0
118,shift,color,left,1,1,0.5358381,left,0.8761089046875,0.3562371533906112,6.4,0,0
118,shift,shape,left,1,1,0.5198622,left,0.8761089046875,0.3562371533906112,6.4,0,0
118,shift,color,right,1,1,0.8559012,right,0.8761089046875,0.3562371533906112,6.4,0,0
118,shift,shape,right,1,1,1.3358605,right,0.8761089046875,0.3562371533906112,6.4,0,0
118,shift,shape,left,0,1,0.7118499,left,0.8761089046875,0.3562371533906112,6.4,0,0
118,shift,shape,left,0,1,0.5998655,left,0.8761089046875,0.3562371533906112,6.4,0,0
118,shift,shape,left,0,1,0.6957957,left,0.8761089046875,0.3562371533906112,6.4,0,0
118,shift,color,right,1,1,0.8719093,right,0.8761089046875,0.3562371533906112,6.4,0,0
118,shift,color,left,0,1,0.6158455,left,0.8761089046875,0.3562371533906112,6.4,0,0
118,shift,color,right,0,1,0.8558434,right,0.8761089046875,0.3562371533906112,6.4,0,0
118,shift,shape,left,1,1,0.8558428,left,0.8761089046875,0.3562371533906112,6.4,0,0
118,shift,color,right,1,1,0.7919211,right,0.8761089046875,0.3562371533906112,6.4,0,0
118,shift,color,right,0,1,0.5519107,right,0.8761089046875,0.3562371533906112,6.4,0,0
118,shift,shape,right,1,1,0.5198356,right,0.8761089046875,0.3562371533906112,6.4,0,0
118,shift,shape,left,0,1,0.5678655,left,0.8761089046875,0.3562371533906112,6.4,0,0
118,shift,shape,right,0,1,0.7118396,right,0.8761089046875,0.3562371533906112,6.4,0,0
118,shift,color,right,1,1,1.031866,right,0.8761089046875,0.3562371533906112,6.4,0,0
118,shift,color,left,0,1,0.7278756,left,0.8761089046875,0.3562371533906112,6.4,0,0
118,shift,color,left,0,1,0.6478295,left,0.8761089046875,0.3562371533906112,6.4,0,0
118,shift,color,left,0,1,0.5358694,left,0.8761089046875,0.3562371533906112,6.4,0,0
118,shift,shape,left,1,1,1.4478688,left,0.8761089046875,0.3562371533906112,6.4,0,0
118,shift,color,right,1,1,0.8558668,right,0.8761089046875,0.3562371533906112,6.4,0,0
118,shift,shape,left,1,1,1.1917927,left,0.8761089046875,0.3562371533906112,6.4,0,0
118,shift,shape,right,0,1,0.5519543,right,0.8761089046875,0.3562371533906112,6.4,0,0
118,shift,color,right,1,1,0.5357719,right,0.8761089046875,0.3562371533906112,6.4,0,0
118,shift,shape,left,1,1,0.7598209,left,0.8761089046875,0.3562371533906112,6.4,0,0
118,shift,shape,right,0,1,0.5839309,right,0.8761089046875,0.3562371533906112,6.4,0,0
118,shift,shape,right,0,1,1.255833,right,0.8761089046875,0.3562371533906112,6.4,0,0
118,shift,color,left,1,1,0.5998174,left,0.8761089046875,0.3562371533906112,6.4,0,0
118,shift,color,right,0,1,0.6639315,right,0.8761089046875,0.3562371533906112,6.4,0,0
118,shift,shape,right,1,1,1.1919501,right,0.8761089046875,0.3562371533906112,6.4,0,0
118,shift,color,left,1,1,0.9517994,left,0.8761089046875,0.3562371533906112,6.4,0,0
118,shift,color,left,0,1,0.5678068,left,0.8761089046875,0.3562371533906112,6.4,0,0
118,shift,shape,left,1,1,1.0158501,left,0.8761089046875,0.3562371533906112,6.4,0,0
118,shift,shape,left,0,1,0.5998703,left,0.8761089046875,0.3562371533906112,6.4,0,0
118,shift,shape,left,0,1,1.8958823,left,0.8761089046875,0.3562371533906112,6.4,0,0
118,shift,color,left,1,1,2.3599227,left,0.8761089046875,0.3562371533906112,6.4,1,0
118,shift,color,left,0,1,1.7677404,left,0.8761089046875,0.3562371533906112,6.4,0,0
118,shift,shape,right,1,1,0.6798528,right,0.8761089046875,0.3562371533906112,6.4,0,0
118,shift,shape,left,0,1,0.9997982,left,0.8761089046875,0.3562371533906112,6.4,0,0
118,shift,color,right,1,1,0.7278307,right,0.8761089046875,0.3562371533906112,6.4,0,0
118,shift,color,right,0,1,0.8559585,right,0.8761089046875,0.3562371533906112,6.4,0,0
118,shift,shape,left,1,1,1.2557492,left,0.8761089046875,0.3562371533906112,6.4,0,0
118,shift,color,left,1,1,0.7439225,left,0.8761089046875,0.3562371533906112,6.4,0,0
118,shift,color,left,0,1,1.2078898,left,0.8761089046875,0.3562371533906112,6.4,0,0
118,shift,color,left,0,1,0.8078561,left,0.8761089046875,0.3562371533906112,6.4,0,0
118,shift,shape,right,1,1,0.7117786,right,0.8761089046875,0.3562371533906112,6.4,0,0
118,shift,color,right,1,1,1.1439292,right,0.8761089046875,0.3562371533906112,6.4,0,0
118,shift,color,right,0,1,0.8719021,right,0.8761089046875,0.3562371533906112,6.4,0,0
118,shift,shape,right,1,1,1.4477968,right,0.8761089046875,0.3562371533906112,6.4,0,0
118,shift,shape,left,0,1,0.8558861,left,0.8761089046875,0.3562371533906112,6.4,0,0
119,color,color,right,0,1,0.4783138,right,0.527384,0.11397860320930508,2,0,0
119,color,color,right,0,1,0.4879683,right,0.527384,0.11397860320930508,2,0,0
119,color,color,right,0,1,0.4238359,right,0.527384,0.11397860320930508,2,0,0
119,color,color,left,0,1,0.4077973,left,0.527384,0.11397860320930508,2,0,0
119,color,color,right,0,1,0.5039893,right,0.527384,0.11397860320930508,2,0,0
119,color,color,right,0,1,0.4077365,right,0.527384,0.11397860320930508,2,0,0
119,color,color,right,0,1,0.4399445,right,0.527384,0.11397860320930508,2,0,0
119,color,color,left,0,1,0.5998199,left,0.527384,0.11397860320930508,2,0,0
119,color,color,left,0,1,0.5198562,left,0.527384,0.11397860320930508,2,0,0
119,color,color,left,0,1,0.6158543,left,0.527384,0.11397860320930508,2,0,0
119,color,color,right,0,1,0.5678316,right,0.527384,0.11397860320930508,2,0,0
119,color,color,right,0,1,0.4238635,right,0.527384,0.11397860320930508,2,0,0
119,color,color,right,0,1,0.3599433,right,0.527384,0.11397860320930508,2,0,0
119,color,color,left,0,1,0.4718313,left,0.527384,0.11397860320930508,2,0,0
119,color,color,left,0,1,0.5839129,left,0.527384,0.11397860320930508,2,0,0
119,color,color,left,0,1,0.6318444,left,0.527384,0.11397860320930508,2,0,0
119,color,color,right,0,1,0.855863,right,0.527384,0.11397860320930508,2,0,0
119,color,color,left,0,1,0.5678474,left,0.527384,0.11397860320930508,2,0,0
119,color,color,left,0,1,0.5518691,left,0.527384,0.11397860320930508,2,0,0
119,color,color,left,0,1,0.6477575,left,0.527384,0.11397860320930508,2,0,0
119,shape,shape,right,0,1,0.6159488,right,0.55586421,0.15309112478615267,2,0,0
119,shape,shape,left,0,1,0.5358685,left,0.55586421,0.15309112478615267,2,0,0
119,shape,shape,right,0,1,1.1118411,right,0.55586421,0.15309112478615267,2,1,0
119,shape,shape,right,0,1,0.6158839,right,0.55586421,0.15309112478615267,2,0,0
119,shape,shape,left,0,1,0.4397911,left,0.55586421,0.15309112478615267,2,0,0
119,shape,shape,left,0,1,0.4399232,left,0.55586421,0.15309112478615267,2,0,0
119,shape,shape,left,0,1,0.4238469,left,0.55586421,0.15309112478615267,2,0,0
119,shape,shape,right,0,1,0.4880938,right,0.55586421,0.15309112478615267,2,0,0
119,shape,shape,left,0,1,0.6156417,left,0.55586421,0.15309112478615267,2,0,0
119,shape,shape,right,0,1,0.5678366,right,0.55586421,0.15309112478615267,2,0,0
119,shape,shape,left,0,1,0.4237756,left,0.55586421,0.15309112478615267,2,0,0
119,shape,shape,right,0,1,0.7279018,right,0.55586421,0.15309112478615267,2,0,0
119,shape,shape,left,0,1,0.5199028,left,0.55586421,0.15309112478615267,2,0,0
119,shape,shape,left,0,1,0.4558812,left,0.55586421,0.15309112478615267,2,0,0
119,shape,shape,right,0,1,0.5518411,right,0.55586421,0.15309112478615267,2,0,0
119,shape,shape,left,0,1,0.4880766,left,0.55586421,0.15309112478615267,2,0,0
119,shape,shape,right,0,1,0.5676726,right,0.55586421,0.15309112478615267,2,0,0
119,shape,shape,left,0,1,0.4558615,left,0.55586421,0.15309112478615267,2,0,0
119,shape,shape,right,0,1,0.5677705,right,0.55586421,0.15309112478615267,2,0,0
119,shape,shape,right,0,1,0.5039249,right,0.55586421,0.15309112478615267,2,0,0
119,shift,shape,right,0,1,0.455781,right,0.7513600671875,0.26377807930428704,6.4,0,0
119,shift,shape,left,0,1,0.4879244,left,0.7513600671875,0.26377807930428704,6.4,0,0
119,shift,color,left,1,0,0.5518199,right,0.7513600671875,0.26377807930428704,6.4,0,0
119,shift,color,right,0,0,0.5519034,left,0.7513600671875,0.26377807930428704,6.4,0,0
119,shift,shape,right,1,1,0.551902,right,0.7513600671875,0.26377807930428704,6.4,0,0
119,shift,shape,left,0,1,0.6158719,left,0.7513600671875,0.26377807930428704,6.4,0,0
119,shift,shape,right,0,1,0.5997627,right,0.7513600671875,0.26377807930428704,6.4,0,0
119,shift,color,left,1,0,0.584002,right,0.7513600671875,0.26377807930428704,6.4,0,0
119,shift,shape,left,1,1,0.5837894,left,0.7513600671875,0.26377807930428704,6.4,0,0
119,shift,shape,left,0,1,0.471908,left,0.7513600671875,0.26377807930428704,6.4,0,0
119,shift,shape,left,0,1,0.5998735,left,0.7513600671875,0.26377807930428704,6.4,0,0
119,shift,shape,left,0,1,0.4398372,left,0.7513600671875,0.26377807930428704,6.4,0,0
119,shift,color,right,1,0,1.1278066,left,0.7513600671875,0.26377807930428704,6.4,0,0
119,shift,shape,left,1,1,1.0478924,left,0.7513600671875,0.26377807930428704,6.4,0,0
119,shift,color,left,1,1,1.2558048,left,0.7513600671875,0.26377807930428704,6.4,0,0
119,shift,color,right,0,1,0.9358909,right,0.7513600671875,0.26377807930428704,6.4,0,0
119,shift,shape,left,1,1,0.663894,left,0.7513600671875,0.26377807930428704,6.4,0,0
119,shift,shape,left,0,1,0.7437779,left,0.7513600671875,0.26377807930428704,6.4,0,0
119,shift,color,right,1,1,1.2238832,right,0.7513600671875,0.26377807930428704,6.4,0,0
119,shift,color,right,0,1,0.8078854,right,0.7513600671875,0.26377807930428704,6.4,0,0
119,shift,color,left,0,1,0.999876,left,0.7513600671875,0.26377807930428704,6.4,0,0
119,shift,shape,right,1,1,0.7917694,right,0.7513600671875,0.26377807930428704,6.4,0,0
119,shift,color,right,1,1,0.6638268,right,0.7513600671875,0.26377807930428704,6.4,0,0
119,shift,color,left,0,1,1.2559753,left,0.7513600671875,0.26377807930428704,6.4,0,0
119,shift,shape,right,1,1,0.5518603,right,0.7513600671875,0.26377807930428704,6.4,0,0
119,shift,shape,left,0,1,0.9198902,left,0.7513600671875,0.26377807930428704,6.4,0,0
119,shift,shape,right,0,1,0.9837188,right,0.7513600671875,0.26377807930428704,6.4,0,0
119,shift,color,left,1,1,0.6318458,left,0.7513600671875,0.26377807930428704,6.4,0,0
119,shift,color,left,0,1,0.8559809,left,0.7513600671875,0.26377807930428704,6.4,0,0
119,shift,color,right,0,1,0.4558852,right,0.7513600671875,0.26377807930428704,6.4,0,0
119,shift,color,right,0,1,0.519835,right,0.7513600671875,0.26377807930428704,6.4,0,0
119,shift,shape,left,1,1,0.80787,left,0.7513600671875,0.26377807930428704,6.4,0,0
119,shift,shape,left,0,1,0.4878052,left,0.7513600671875,0.26377807930428704,6.4,0,0
119,shift,shape,right,0,1,0.5998424,right,0.7513600671875,0.26377807930428704,6.4,0,0
119,shift,color,left,1,1,0.6158902,left,0.7513600671875,0.26377807930428704,6.4,0,0
119,shift,shape,left,1,1,1.3838798,left,0.7513600671875,0.26377807930428704,6.4,0,0
119,shift,shape,left,0,1,0.7278396,left,0.7513600671875,0.26377807930428704,6.4,0,0
119,shift,color,left,1,1,1.7998598,left,0.7513600671875,0.26377807930428704,6.4,1,0
119,shift,color,left,0,1,1.0318711,left,0.7513600671875,0.26377807930428704,6.4,0,0
119,shift,shape,right,1,1,0.6318718,right,0.7513600671875,0.26377807930428704,6.4,0,0
119,shift,color,right,1,1,0.8397458,right,0.7513600671875,0.26377807930428704,6.4,0,0
119,shift,color,left,0,1,0.9359921,left,0.7513600671875,0.26377807930428704,6.4,0,0
119,shift,shape,right,1,1,0.5837789,right,0.7513600671875,0.26377807930428704,6.4,0,0
119,shift,color,right,1,1,0.5998977,right,0.7513600671875,0.26377807930428704,6.4,0,0
119,shift,shape,right,1,1,0.5998743,right,0.7513600671875,0.26377807930428704,6.4,0,0
119,shift,color,right,1,1,0.5518581,right,0.7513600671875,0.26377807930428704,6.4,0,0
119,shift,color,left,0,1,0.9998581,left,0.7513600671875,0.26377807930428704,6.4,0,0
119,shift,shape,right,1,1,1.0318994,right,0.7513600671875,0.26377807930428704,6.4,0,0
119,shift,color,right,1,1,0.5358611,right,0.7513600671875,0.26377807930428704,6.4,0,0
119,shift,color,left,0,1,0.8558154,left,0.7513600671875,0.26377807930428704,6.4,0,0
119,shift,shape,left,1,1,0.871897,left,0.7513600671875,0.26377807930428704,6.4,0,0
119,shift,shape,right,0,1,0.807726,right,0.7513600671875,0.26377807930428704,6.4,0,0
119,shift,shape,right,0,1,0.5999642,right,0.7513600671875,0.26377807930428704,6.4,0,0
119,shift,color,left,1,1,0.8078478,left,0.7513600671875,0.26377807930428704,6.4,0,0
119,shift,color,right,0,1,0.5678768,right,0.7513600671875,0.26377807930428704,6.4,0,0
119,shift,shape,right,1,1,0.6638552,right,0.7513600671875,0.26377807930428704,6.4,0,0
119,shift,shape,left,0,1,0.6317519,left,0.7513600671875,0.26377807930428704,6.4,0,0
119,shift,color,left,1,1,0.7439997,left,0.7513600671875,0.26377807930428704,6.4,0,0
119,shift,color,right,0,1,0.9359805,right,0.7513600671875,0.26377807930428704,6.4,0,0
119,shift,shape,right,1,1,0.6636695,right,0.7513600671875,0.26377807930428704,6.4,0,0
119,shift,color,right,1,1,0.4559134,right,0.7513600671875,0.26377807930428704,6.4,0,0
119,shift,shape,right,1,0,0.7118906,left,0.7513600671875,0.26377807930428704,6.4,0,0
119,shift,color,right,1,1,0.3597303,right,0.7513600671875,0.26377807930428704,6.4,0,0
119,shift,color,left,0,1,0.7119563,left,0.7513600671875,0.26377807930428704,6.4,0,0
120,color,color,left,0,1,0.4137944,left,0.44575461,0.04854839984990453,2,0,0
120,color,color,left,0,1,0.4878027,left,0.44575461,0.04854839984990453,2,0,0
120,color,color,left,0,1,0.4558231,left,0.44575461,0.04854839984990453,2,0,0
120,color,color,left,0,1,0.4558685,left,0.44575461,0.04854839984990453,2,0,0
120,color,color,right,0,1,0.4238782,right,0.44575461,0.04854839984990453,2,0,0
120,color,color,right,0,0,0.3758788,left,0.44575461,0.04854839984990453,2,0,0
120,color,color,left,0,1,0.5198725,left,0.44575461,0.04854839984990453,2,0,0
120,color,color,right,0,1,0.4718323,right,0.44575461,0.04854839984990453,2,0,0
120,color,color,left,0,1,0.4238855,left,0.44575461,0.04854839984990453,2,0,0
120,color,color,left,0,1,0.5359477,left,0.44575461,0.04854839984990453,2,0,0
120,color,color,left,0,1,0.4397737,left,0.44575461,0.04854839984990453,2,0,0
120,color,color,right,0,1,0.3278897,right,0.44575461,0.04854839984990453,2,0,0
120,color,color,right,0,1,0.4238004,right,0.44575461,0.04854839984990453,2,0,0
120,color,color,right,0,1,0.3918243,right,0.44575461,0.04854839984990453,2,0,0
120,color,color,right,0,1,0.4558647,right,0.44575461,0.04854839984990453,2,0,0
120,color,color,left,0,1,0.423955,left,0.44575461,0.04854839984990453,2,0,0
120,color,color,right,0,1,0.4878532,right,0.44575461,0.04854839984990453,2,0,0
120,color,color,right,0,1,0.4878055,right,0.44575461,0.04854839984990453,2,0,0
120,color,color,right,0,1,0.4559255,right,0.44575461,0.04854839984990453,2,0,0
120,color,color,left,0,1,0.4558165,left,0.44575461,0.04854839984990453,2,0,0
120,shape,shape,left,0,1,0.4078703,left,0.455862625,0.0800821167832506,2,0,0
120,shape,shape,left,0,1,0.4559129,left,0.455862625,0.0800821167832506,2,0,0
120,shape,shape,right,0,1,0.3758276,right,0.455862625,0.0800821167832506,2,0,0
120,shape,shape,left,0,1,0.3758736,left,0.455862625,0.0800821167832506,2,0,0
120,shape,shape,left,0,1,0.4398739,left,0.455862625,0.0800821167832506,2,0,0
120,shape,shape,right,0,1,0.4078671,right,0.455862625,0.0800821167832506,2,0,0
120,shape,shape,left,0,1,0.7438373,left,0.455862625,0.0800821167832506,2,1,0
120,shape,shape,left,0,1,0.5038453,left,0.455862625,0.0800821167832506,2,0,0
120,shape,shape,right,0,1,0.5198679,right,0.455862625,0.0800821167832506,2,0,0
120,shape,shape,right,0,1,0.4718844,right,0.455862625,0.0800821167832506,2,0,0
120,shape,shape,right,0,1,0.487819,right,0.455862625,0.0800821167832506,2,0,0
120,shape,shape,right,0,1,0.4399047,right,0.455862625,0.0800821167832506,2,0,0
120,shape,shape,right,0,1,0.4878347,right,0.455862625,0.0800821167832506,2,0,0
120,shape,shape,left,0,1,0.4399832,left,0.455862625,0.0800821167832506,2,0,0
120,shape,shape,right,0,1,0.4237886,right,0.455862625,0.0800821167832506,2,0,0
120,shape,shape,right,0,1,0.4398125,right,0.455862625,0.0800821167832506,2,0,0
120,shape,shape,right,0,1,0.4718513,right,0.455862625,0.0800821167832506,2,0,0
120,shape,shape,left,0,1,0.4559375,left,0.455862625,0.0800821167832506,2,0,0
120,shape,shape,left,0,1,0.3758057,left,0.455862625,0.0800821167832506,2,0,0
120,shape,shape,left,0,1,0.391855,left,0.455862625,0.0800821167832506,2,0,0
120,shift,shape,right,0,1,0.4398363,right,0.5306127359375,0.22062367447556222,6.4,0,0
120,shift,color,right,1,1,0.7279175,right,0.5306127359375,0.22062367447556222,6.4,0,0
120,shift,shape,right,1,1,0.6638714,right,0.5306127359375,0.22062367447556222,6.4,0,0
120,shift,shape,left,0,1,0.3918412,left,0.5306127359375,0.22062367447556222,6.4,0,0
120,shift,color,right,1,1,0.4078495,right,0.5306127359375,0.22062367447556222,6.4,0,0
120,shift,color,left,0,1,0.3758664,left,0.5306127359375,0.22062367447556222,6.4,0,0
120,shift,shape,right,1,1,0.4078536,right,0.5306127359375,0.22062367447556222,6.4,0,0
120,shift,color,left,1,1,0.4238715,left,0.5306127359375,0.22062367447556222,6.4,0,0
120,shift,shape,left,1,1,1.4958793,left,0.5306127359375,0.22062367447556222,6.4,1,0
120,shift,shape,right,0,1,0.5358264,right,0.5306127359375,0.22062367447556222,6.4,0,0
120,shift,shape,left,0,1,0.3759515,left,0.5306127359375,0.22062367447556222,6.4,0,0
120,shift,shape,right,0,1,0.455806,right,0.5306127359375,0.22062367447556222,6.4,0,0
120,shift,color,right,1,1,0.3598129,right,0.5306127359375,0.22062367447556222,6.4,0,0
120,shift,color,left,0,1,0.4399066,left,0.5306127359375,0.22062367447556222,6.4,0,0
120,shift,color,left,0,0,0.7278131,right,0.5306127359375,0.22062367447556222,6.4,0,0
120,shift,color,right,0,1,0.5358598,right,0.5306127359375,0.22062367447556222,6.4,0,0
120,shift,shape,right,1,1,0.455922,right,0.5306127359375,0.22062367447556222,6.4,0,0
120,shift,color,left,1,1,0.4558879,left,0.5306127359375,0.22062367447556222,6.4,0,0
120,shift,color,right,0,1,0.3918268,right,0.5306127359375,0.22062367447556222,6.4,0,0
120,shift,shape,right,1,1,0.4878227,right,0.5306127359375,0.22062367447556222,6.4,0,0
120,shift,shape,left,0,1,0.3918963,left,0.5306127359375,0.22062367447556222,6.4,0,0
120,shift,color,right,1,1,0.3758689,right,0.5306127359375,0.22062367447556222,6.4,0,0
120,shift,color,right,0,1,0.3758842,right,0.5306127359375,0.22062367447556222,6.4,0,0
120,shift,color,left,0,1,0.3597866,left,0.5306127359375,0.22062367447556222,6.4,0,0
120,shift,color,right,0,1,0.391894,right,0.5306127359375,0.22062367447556222,6.4,0,0
120,shift,shape,right,1,1,0.4558714,right,0.5306127359375,0.22062367447556222,6.4,0,0
120,shift,color,left,1,1,0.4238979,left,0.5306127359375,0.22062367447556222,6.4,0,0
120,shift,color,left,0,1,0.4878745,left,0.5306127359375,0.22062367447556222,6.4,0,0
120,shift,shape,right,1,1,0.423886,right,0.5306127359375,0.22062367447556222,6.4,0,0
120,shift,color,right,1,1,0.4878461,right,0.5306127359375,0.22062367447556222,6.4,0,0
120,shift,shape,right,1,0,0.4718331,left,0.5306127359375,0.22062367447556222,6.4,0,0
120,shift,color,left,1,1,1.1758053,left,0.5306127359375,0.22062367447556222,6.4,0,0
120,shift,color,left,0,1,0.4878965,left,0.5306127359375,0.22062367447556222,6.4,0,0
120,shift,shape,right,1,1,0.599853,right,0.5306127359375,0.22062367447556222,6.4,0,0
120,shift,shape,left,0,1,0.471832,left,0.5306127359375,0.22062367447556222,6.4,0,0
120,shift,shape,right,0,1,0.3598778,right,0.5306127359375,0.22062367447556222,6.4,0,0
120,shift,shape,left,0,1,0.4078114,left,0.5306127359375,0.22062367447556222,6.4,0,0
120,shift,color,left,1,1,0.5358784,left,0.5306127359375,0.22062367447556222,6.4,0,0
120,shift,color,left,0,1,1.0638881,left,0.5306127359375,0.22062367447556222,6.4,0,0
120,shift,color,right,0,1,0.4078859,right,0.5306127359375,0.22062367447556222,6.4,0,0
120,shift,shape,left,1,1,0.5198095,left,0.5306127359375,0.22062367447556222,6.4,0,0
120,shift,color,right,1,1,0.4239139,right,0.5306127359375,0.22062367447556222,6.4,0,0
120,shift,shape,left,1,1,0.3918744,left,0.5306127359375,0.22062367447556222,6.4,0,0
120,shift,shape,right,0,1,0.3598181,right,0.5306127359375,0.22062367447556222,6.4,0,0
120,shift,shape,right,0,1,0.4399048,right,0.5306127359375,0.22062367447556222,6.4,0,0
120,shift,color,left,1,1,0.4238366,left,0.5306127359375,0.22062367447556222,6.4,0,0
120,shift,color,left,0,1,0.4398815,left,0.5306127359375,0.22062367447556222,6.4,0,0
120,shift,shape,left,1,1,0.6958902,left,0.5306127359375,0.22062367447556222,6.4,0,0
120,shift,color,right,1,1,0.4718522,right,0.5306127359375,0.22062367447556222,6.4,0,0
120,shift,color,right,0,1,0.615907,right,0.5306127359375,0.22062367447556222,6.4,0,0
120,shift,shape,left,1,1,0.4397484,left,0.5306127359375,0.22062367447556222,6.4,0,0
120,shift,shape,left,0,1,0.631928,left,0.5306127359375,0.22062367447556222,6.4,0,0
120,shift,color,right,1,1,0.503837,right,0.5306127359375,0.22062367447556222,6.4,0,0
120,shift,color,right,0,1,0.4878686,right,0.5306127359375,0.22062367447556222,6.4,0,0
120,shift,shape,left,1,1,0.4078812,left,0.5306127359375,0.22062367447556222,6.4,0,0
120,shift,color,right,1,1,0.3598387,right,0.5306127359375,0.22062367447556222,6.4,0,0
120,shift,shape,right,1,1,0.8238518,right,0.5306127359375,0.22062367447556222,6.4,0,0
120,shift,shape,left,0,1,1.1439336,left,0.5306127359375,0.22062367447556222,6.4,0,0
120,shift,color,left,1,1,0.5518562,left,0.5306127359375,0.22062367447556222,6.4,0,0
120,shift,shape,left,1,1,0.5038436,left,0.5306127359375,0.22062367447556222,6.4,0,0
120,shift,shape,right,0,1,0.5518376,right,0.5306127359375,0.22062367447556222,6.4,0,0
120,shift,shape,left,0,1,0.5360368,left,0.5306127359375,0.22062367447556222,6.4,0,0
120,shift,color,left,1,1,0.4717302,left,0.5306127359375,0.22062367447556222,6.4,0,0
120,shift,shape,left,1,1,1.0478454,left,0.5306127359375,0.22062367447556222,6.4,0,0
121,shape,shape,right,0,1,0.7345852,right,0.776994215,0.18014552839924863,2,0,0
121,shape,shape,right,0,1,0.9039094,right,0.776994215,0.18014552839924863,2,0,0
121,shape,shape,left,0,1,0.679809,left,0.776994215,0.18014552839924863,2,0,0
121,shape,shape,right,0,1,0.6159236,right,0.776994215,0.18014552839924863,2,0,0
121,shape,shape,left,0,1,1.0957917,left,0.776994215,0.18014552839924863,2,0,0
121,shape,shape,right,0,1,0.5839013,right,0.776994215,0.18014552839924863,2,0,0
121,shape,shape,left,0,1,0.6317805,left,0.776994215,0.18014552839924863,2,0,0
121,shape,shape,right,0,1,0.6479103,right,0.776994215,0.18014552839924863,2,0,0
121,shape,shape,left,0,1,0.8079348,left,0.776994215,0.18014552839924863,2,0,0
121,shape,shape,right,0,1,0.6318312,right,0.776994215,0.18014552839924863,2,0,0
121,shape,shape,right,0,1,0.7598142,right,0.776994215,0.18014552839924863,2,0,0
121,shape,shape,left,0,1,0.9199054,left,0.776994215,0.18014552839924863,2,0,0
121,shape,shape,left,0,1,1.2398292,left,0.776994215,0.18014552839924863,2,0,0
121,shape,shape,left,0,1,0.80779,left,0.776994215,0.18014552839924863,2,0,0
121,shape,shape,right,0,1,0.7600639,right,0.776994215,0.18014552839924863,2,0,0
121,shape,shape,right,0,1,0.6636573,right,0.776994215,0.18014552839924863,2,0,0
121,shape,shape,left,0,1,0.599759,left,0.776994215,0.18014552839924863,2,0,0
121,shape,shape,right,0,1,0.7119429,right,0.776994215,0.18014552839924863,2,0,0
121,shape,shape,left,0,1,0.6958869,left,0.776994215,0.18014552839924863,2,0,0
121,shape,shape,left,0,1,1.0478585,left,0.776994215,0.18014552839924863,2,0,0
121,color,color,right,0,1,2.1038138,right,1.007857375,0.4102672956200819,2,0,0
121,color,color,left,0,0,0.9838898,right,1.007857375,0.4102672956200819,2,0,0
121,color,color,right,0,1,1.6238097,right,1.007857375,0.4102672956200819,2,0,0
121,color,color,left,0,1,1.143937,left,1.007857375,0.4102672956200819,2,0,0
121,color,color,right,0,1,0.9038665,right,1.007857375,0.4102672956200819,2,0,0
121,color,color,right,0,1,1.4958365,right,1.007857375,0.4102672956200819,2,0,0
121,color,color,left,0,1,0.9677331,left,1.007857375,0.4102672956200819,2,0,0
121,color,color,right,0,1,0.7598638,right,1.007857375,0.4102672956200819,2,0,0
121,color,color,left,0,1,0.9199159,left,1.007857375,0.4102672956200819,2,0,0
121,color,color,left,0,1,1.4639058,left,1.007857375,0.4102672956200819,2,0,0
121,color,color,right,0,1,1.351902,right,1.007857375,0.4102672956200819,2,0,0
121,color,color,left,0,1,0.8718235,left,1.007857375,0.4102672956200819,2,0,0
121,color,color,left,0,1,0.7278691,left,1.007857375,0.4102672956200819,2,0,0
121,color,color,right,0,1,0.9837554,right,1.007857375,0.4102672956200819,2,0,0
121,color,color,right,0,1,0.6639349,right,1.007857375,0.4102672956200819,2,0,0
121,color,color,left,0,1,0.6318673,left,1.007857375,0.4102672956200819,2,0,0
121,color,color,right,0,1,0.6638802,right,1.007857375,0.4102672956200819,2,0,0
121,color,color,left,0,1,0.5998744,left,1.007857375,0.4102672956200819,2,0,0
121,color,color,right,0,1,0.4878459,right,1.007857375,0.4102672956200819,2,0,0
121,color,color,left,0,1,0.8078229,left,1.007857375,0.4102672956200819,2,0,0
121,shift,shape,left,1,0,0.5838806,right,1.0738583171875,0.3736214230021417,6.4,0,0
121,shift,color,left,1,1,0.663894,left,1.0738583171875,0.3736214230021417,6.4,0,0
121,shift,color,left,0,1,0.7278238,left,1.0738583171875,0.3736214230021417,6.4,0,0
121,shift,shape,right,1,1,1.5278874,right,1.0738583171875,0.3736214230021417,6.4,0,0
121,shift,color,right,1,1,0.6638039,right,1.0738583171875,0.3736214230021417,6.4,0,0
121,shift,color,right,0,1,0.6799506,right,1.0738583171875,0.3736214230021417,6.4,0,0
121,shift,shape,right,1,1,0.9357523,right,1.0738583171875,0.3736214230021417,6.4,0,0
121,shift,color,right,1,1,0.7279469,right,1.0738583171875,0.3736214230021417,6.4,0,0
121,shift,shape,right,1,1,1.3843383,right,1.0738583171875,0.3736214230021417,6.4,0,0
121,shift,shape,right,0,1,1.0953613,right,1.0738583171875,0.3736214230021417,6.4,0,0
121,shift,color,right,1,1,1.1437791,right,1.0738583171875,0.3736214230021417,6.4,0,0
121,shift,shape,left,1,1,1.3839152,left,1.0738583171875,0.3736214230021417,6.4,0,0
121,shift,color,left,1,1,1.3678698,left,1.0738583171875,0.3736214230021417,6.4,0,0
121,shift,shape,right,1,1,1.0477561,right,1.0738583171875,0.3736214230021417,6.4,0,0
121,shift,shape,right,0,1,0.807939,right,1.0738583171875,0.3736214230021417,6.4,0,0
121,shift,shape,left,0,1,0.5998723,left,1.0738583171875,0.3736214230021417,6.4,0,0
121,shift,color,right,1,1,0.8397695,right,1.0738583171875,0.3736214230021417,6.4,0,0
121,shift,color,right,0,1,1.3198746,right,1.0738583171875,0.3736214230021417,6.4,0,0
121,shift,shape,right,1,1,1.2078724,right,1.0738583171875,0.3736214230021417,6.4,0,0
121,shift,color,right,1,1,1.1599005,right,1.0738583171875,0.3736214230021417,6.4,0,0
121,shift,color,left,0,1,0.67981,left,1.0738583171875,0.3736214230021417,6.4,0,0
121,shift,color,left,0,1,0.7599531,left,1.0738583171875,0.3736214230021417,6.4,0,0
121,shift,color,left,0,1,0.7918954,left,1.0738583171875,0.3736214230021417,6.4,0,0
121,shift,shape,left,1,1,0.6958725,left,1.0738583171875,0.3736214230021417,6.4,0,0
121,shift,shape,left,0,1,0.5677788,left,1.0738583171875,0.3736214230021417,6.4,0,0
121,shift,shape,left,0,1,0.9198875,left,1.0738583171875,0.3736214230021417,6.4,0,0
121,shift,shape,left,0,1,0.8718605,left,1.0738583171875,0.3736214230021417,6.4,0,0
121,shift,color,right,1,1,0.9518058,right,1.0738583171875,0.3736214230021417,6.4,0,0
121,shift,color,right,0,1,0.6638686,right,1.0738583171875,0.3736214230021417,6.4,0,0
121,shift,color,left,0,1,0.9358238,left,1.0738583171875,0.3736214230021417,6.4,0,0
121,shift,color,left,0,1,1.2079257,left,1.0738583171875,0.3736214230021417,6.4,0,0
121,shift,shape,right,1,1,1.7837761,right,1.0738583171875,0.3736214230021417,6.4,0,0
121,shift,color,left,1,1,0.9358796,left,1.0738583171875,0.3736214230021417,6.4,0,0
121,shift,shape,left,1,1,0.9039226,left,1.0738583171875,0.3736214230021417,6.4,0,0
121,shift,shape,right,0,1,0.9038779,right,1.0738583171875,0.3736214230021417,6.4,0,0
121,shift,shape,right,0,1,1.1277578,right,1.0738583171875,0.3736214230021417,6.4,0,0
121,shift,color,right,1,0,1.047946,left,1.0738583171875,0.3736214230021417,6.4,0,0
121,shift,shape,right,1,1,0.9678225,right,1.0738583171875,0.3736214230021417,6.4,0,0
121,shift,color,right,1,1,1.4798646,right,1.0738583171875,0.3736214230021417,6.4,0,0
121,shift,color,left,0,1,1.0958236,left,1.0738583171875,0.3736214230021417,6.4,0,0
121,shift,color,left,0,1,1.159943,left,1.0738583171875,0.3736214230021417,6.4,0,0
121,shift,color,left,0,1,1.2557731,left,1.0738583171875,0.3736214230021417,6.4,0,0
121,shift,shape,right,1,1,1.2559474,right,1.0738583171875,0.3736214230021417,6.4,0,0
121,shift,shape,right,0,1,0.9358294,right,1.0738583171875,0.3736214230021417,6.4,0,0
121,shift,color,right,1,1,1.1118293,right,1.0738583171875,0.3736214230021417,6.4,0,0
121,shift,shape,right,1,1,0.8717868,right,1.0738583171875,0.3736214230021417,6.4,0,0
121,shift,color,right,1,1,1.1279462,right,1.0738583171875,0.3736214230021417,6.4,0,0
121,shift,shape,left,1,1,0.999847,left,1.0738583171875,0.3736214230021417,6.4,0,0
121,shift,shape,right,0,1,1.2878516,right,1.0738583171875,0.3736214230021417,6.4,0,0
121,shift,shape,left,0,1,2.8559507,left,1.0738583171875,0.3736214230021417,6.4,1,0
121,shift,shape,left,0,1,0.9357176,left,1.0738583171875,0.3736214230021417,6.4,0,0
121,shift,color,right,1,1,0.823919,right,1.0738583171875,0.3736214230021417,6.4,0,0
121,shift,color,left,0,1,1.3678646,left,1.0738583171875,0.3736214230021417,6.4,0,0
121,shift,shape,left,1,1,1.6078529,left,1.0738583171875,0.3736214230021417,6.4,0,0
121,shift,shape,left,0,1,1.4164045,left,1.0738583171875,0.3736214230021417,6.4,0,0
121,shift,color,left,1,1,1.4952937,left,1.0738583171875,0.3736214230021417,6.4,0,0
121,shift,color,left,0,1,1.1598028,left,1.0738583171875,0.3736214230021417,6.4,0,0
121,shift,shape,left,1,1,1.7518998,left,1.0738583171875,0.3736214230021417,6.4,0,0
121,shift,shape,right,0,1,0.9837533,right,1.0738583171875,0.3736214230021417,6.4,0,0
121,shift,shape,left,0,1,1.0639403,left,1.0738583171875,0.3736214230021417,6.4,0,0
121,shift,color,right,1,1,1.1278643,right,1.0738583171875,0.3736214230021417,6.4,0,0
121,shift,shape,left,1,1,1.5438534,left,1.0738583171875,0.3736214230021417,6.4,0,0
121,shift,color,left,1,1,0.8238654,left,1.0738583171875,0.3736214230021417,6.4,0,0
121,shift,color,right,0,1,0.5998562,right,1.0738583171875,0.3736214230021417,6.4,0,0
122,shape,shape,right,0,1,1.5183717,right,0.704188495,0.32696417613677575,2,0,0
122,shape,shape,right,0,1,1.1918474,right,0.704188495,0.32696417613677575,2,0,0
122,shape,shape,left,0,1,1.4798598,left,0.704188495,0.32696417613677575,2,0,0
122,shape,shape,left,0,1,0.5198488,left,0.704188495,0.32696417613677575,2,0,0
122,shape,shape,left,0,1,0.599821,left,0.704188495,0.32696417613677575,2,0,0
122,shape,shape,right,0,1,0.5038825,right,0.704188495,0.32696417613677575,2,0,0
122,shape,shape,right,0,1,0.6159287,right,0.704188495,0.32696417613677575,2,0,0
122,shape,shape,left,0,1,0.7598391,left,0.704188495,0.32696417613677575,2,0,0
122,shape,shape,right,0,1,0.7439038,right,0.704188495,0.32696417613677575,2,0,0
122,shape,shape,left,0,1,0.4557788,left,0.704188495,0.32696417613677575,2,0,0
122,shape,shape,left,0,1,0.4878938,left,0.704188495,0.32696417613677575,2,0,0
122,shape,shape,left,0,1,0.5198567,left,0.704188495,0.32696417613677575,2,0,0
122,shape,shape,right,0,1,0.4718339,right,0.704188495,0.32696417613677575,2,0,0
122,shape,shape,right,0,1,0.5838771,right,0.704188495,0.32696417613677575,2,0,0
122,shape,shape,right,0,1,0.5519269,right,0.704188495,0.32696417613677575,2,0,0
122,shape,shape,left,0,1,0.5678936,left,0.704188495,0.32696417613677575,2,0,0
122,shape,shape,left,0,1,0.5198266,left,0.704188495,0.32696417613677575,2,0,0
122,shape,shape,right,0,1,0.9358851,right,0.704188495,0.32696417613677575,2,0,0
122,shape,shape,left,0,1,0.6478821,left,0.704188495,0.32696417613677575,2,0,0
122,shape,shape,right,0,1,0.4078125,right,0.704188495,0.32696417613677575,2,0,0
122,color,color,right,0,1,0.6799028,right,0.489467055,0.10242311077786198,2,0,0
122,color,color,left,0,1,0.4565059,left,0.489467055,0.10242311077786198,2,0,0
122,color,color,right,0,1,0.3591229,right,0.489467055,0.10242311077786198,2,0,0
122,color,color,left,0,1,0.6639321,left,0.489467055,0.10242311077786198,2,0,0
122,color,color,right,0,1,0.3758123,right,0.489467055,0.10242311077786198,2,0,0
122,color,color,left,0,1,0.6318423,left,0.489467055,0.10242311077786198,2,0,0
122,color,color,right,0,1,0.4079093,right,0.489467055,0.10242311077786198,2,0,0
122,color,color,left,0,1,0.4719534,left,0.489467055,0.10242311077786198,2,0,0
122,color,color,right,0,1,0.4878592,right,0.489467055,0.10242311077786198,2,0,0
122,color,color,left,0,1,0.5197967,left,0.489467055,0.10242311077786198,2,0,0
122,color,color,right,0,1,0.5038757,right,0.489467055,0.10242311077786198,2,0,0
122,color,color,right,0,1,0.6318926,right,0.489467055,0.10242311077786198,2,0,0
122,color,color,right,0,1,0.4398685,right,0.489467055,0.10242311077786198,2,0,0
122,color,color,left,0,1,0.4558663,left,0.489467055,0.10242311077786198,2,0,0
122,color,color,right,0,1,0.599884,right,0.489467055,0.10242311077786198,2,0,0
122,color,color,right,0,1,0.3918105,right,0.489467055,0.10242311077786198,2,0,0
122,color,color,left,0,1,0.5199103,left,0.489467055,0.10242311077786198,2,0,0
122,color,color,left,0,1,0.3918734,left,0.489467055,0.10242311077786198,2,0,0
122,color,color,left,0,1,0.423846,left,0.489467055,0.10242311077786198,2,0,0
122,color,color,left,0,1,0.3758769,left,0.489467055,0.10242311077786198,2,0,0
122,shift,shape,left,1,0,0.3598512,right,0.747360609375,0.26094633172236636,6.4,0,0
122,shift,color,left,1,1,1.0958033,left,0.747360609375,0.26094633172236636,6.4,0,0
122,shift,color,right,0,1,0.8239168,right,0.747360609375,0.26094633172236636,6.4,0,0
122,shift,color,left,0,1,0.6958906,left,0.747360609375,0.26094633172236636,6.4,0,0
122,shift,color,left,0,1,0.4078634,left,0.747360609375,0.26094633172236636,6.4,0,0
122,shift,shape,left,1,1,0.5998213,left,0.747360609375,0.26094633172236636,6.4,0,0
122,shift,color,left,1,1,0.7918741,left,0.747360609375,0.26094633172236636,6.4,0,0
122,shift,color,right,0,1,0.3758296,right,0.747360609375,0.26094633172236636,6.4,0,0
122,shift,shape,left,1,1,1.0639118,left,0.747360609375,0.26094633172236636,6.4,0,0
122,shift,shape,right,0,1,0.8078661,right,0.747360609375,0.26094633172236636,6.4,0,0
122,shift,color,left,1,0,0.7438652,right,0.747360609375,0.26094633172236636,6.4,0,0
122,shift,color,left,0,1,0.8078554,left,0.747360609375,0.26094633172236636,6.4,0,0
122,shift,shape,right,1,1,1.2078755,right,0.747360609375,0.26094633172236636,6.4,0,0
122,shift,shape,left,0,1,0.4878571,left,0.747360609375,0.26094633172236636,6.4,0,0
122,shift,color,right,1,1,0.6158844,right,0.747360609375,0.26094633172236636,6.4,0,0
122,shift,shape,left,1,1,0.6798194,left,0.747360609375,0.26094633172236636,6.4,0,0
122,shift,color,right,1,1,0.567933,right,0.747360609375,0.26094633172236636,6.4,0,0
122,shift,shape,right,1,1,0.7278162,right,0.747360609375,0.26094633172236636,6.4,0,0
122,shift,shape,right,0,1,0.9678614,right,0.747360609375,0.26094633172236636,6.4,0,0
122,shift,shape,right,0,1,0.6158355,right,0.747360609375,0.26094633172236636,6.4,0,0
122,shift,color,right,1,1,0.7118519,right,0.747360609375,0.26094633172236636,6.4,0,0
122,shift,shape,left,1,1,0.9359428,left,0.747360609375,0.26094633172236636,6.4,0,0
122,shift,shape,right,0,1,0.5357831,right,0.747360609375,0.26094633172236636,6.4,0,0
122,shift,shape,right,0,1,0.5199352,right,0.747360609375,0.26094633172236636,6.4,0,0
122,shift,color,left,1,1,1.0638007,left,0.747360609375,0.26094633172236636,6.4,0,0
122,shift,shape,right,1,1,0.5999453,right,0.747360609375,0.26094633172236636,6.4,0,0
122,shift,color,right,1,1,0.6958358,right,0.747360609375,0.26094633172236636,6.4,0,0
122,shift,color,right,0,1,0.503871,right,0.747360609375,0.26094633172236636,6.4,0,0
122,shift,color,left,0,1,0.5198347,left,0.747360609375,0.26094633172236636,6.4,0,0
122,shift,shape,right,1,1,0.5678744,right,0.747360609375,0.26094633172236636,6.4,0,0
122,shift,shape,right,0,1,0.5678516,right,0.747360609375,0.26094633172236636,6.4,0,0
122,shift,color,left,1,1,0.5039863,left,0.747360609375,0.26094633172236636,6.4,0,0
122,shift,color,left,0,1,0.711789,left,0.747360609375,0.26094633172236636,6.4,0,0
122,shift,shape,right,1,1,0.6958103,right,0.747360609375,0.26094633172236636,6.4,0,0
122,shift,shape,left,0,1,0.4878574,left,0.747360609375,0.26094633172236636,6.4,0,0
122,shift,color,right,1,1,1.1759647,right,0.747360609375,0.26094633172236636,6.4,0,0
122,shift,color,right,0,1,0.5197563,right,0.747360609375,0.26094633172236636,6.4,0,0
122,shift,shape,left,1,1,0.6318683,left,0.747360609375,0.26094633172236636,6.4,0,0
122,shift,shape,right,0,1,0.5678943,right,0.747360609375,0.26094633172236636,6.4,0,0
122,shift,shape,left,0,1,1.0638825,left,0.747360609375,0.26094633172236636,6.4,0,0
122,shift,shape,left,0,1,0.6638278,left,0.747360609375,0.26094633172236636,6.4,0,0
122,shift,color,left,1,1,1.0159021,left,0.747360609375,0.26094633172236636,6.4,0,0
122,shift,color,right,0,1,0.5678434,right,0.747360609375,0.26094633172236636,6.4,0,0
122,shift,shape,left,1,1,0.5518364,left,0.747360609375,0.26094633172236636,6.4,0,0
122,shift,shape,right,0,1,0.5358393,right,0.747360609375,0.26094633172236636,6.4,0,0
122,shift,shape,left,0,1,0.5838516,left,0.747360609375,0.26094633172236636,6.4,0,0
122,shift,shape,left,0,1,0.5678196,left,0.747360609375,0.26094633172236636,6.4,0,0
122,shift,color,left,1,0,0.6159383,right,0.747360609375,0.26094633172236636,6.4,0,0
122,shift,color,right,0,1,1.5598542,right,0.747360609375,0.26094633172236636,6.4,1,0
122,shift,shape,right,1,1,1.047822,right,0.747360609375,0.26094633172236636,6.4,0,0
122,shift,color,left,1,0,0.599847,right,0.747360609375,0.26094633172236636,6.4,0,0
122,shift,color,left,0,0,0.6639049,right,0.747360609375,0.26094633172236636,6.4,0,0
122,shift,color,left,0,1,0.7279026,left,0.747360609375,0.26094633172236636,6.4,0,0
122,shift,color,right,0,1,0.8558217,right,0.747360609375,0.26094633172236636,6.4,0,0
122,shift,shape,right,1,0,0.7278845,left,0.747360609375,0.26094633172236636,6.4,0,0
122,shift,color,right,1,1,0.8398166,right,0.747360609375,0.26094633172236636,6.4,0,0
122,shift,color,right,0,1,1.3198779,right,0.747360609375,0.26094633172236636,6.4,0,0
122,shift,shape,left,1,1,1.1117257,left,0.747360609375,0.26094633172236636,6.4,0,0
122,shift,color,right,1,1,0.4078625,right,0.747360609375,0.26094633172236636,6.4,0,0
122,shift,shape,left,1,1,0.6479231,left,0.747360609375,0.26094633172236636,6.4,0,0
122,shift,color,left,1,0,0.6638006,right,0.747360609375,0.26094633172236636,6.4,0,0
122,shift,shape,right,1,1,1.2559215,right,0.747360609375,0.26094633172236636,6.4,0,0
122,shift,color,right,1,0,0.96779250000000006,left,0.747360609375,0.26094633172236636,6.4,0,0
122,shift,shape,left,1,0,1.3038963,right,0.747360609375,0.26094633172236636,6.4,0,0
123,color,color,right,0,1,0.558453,right,0.752991595,0.23007759053951543,2,0,0
123,color,color,right,0,1,0.5838959,right,0.752991595,0.23007759053951543,2,0,0
123,color,color,right,0,1,0.6637655,right,0.752991595,0.23007759053951543,2,0,0
123,color,color,left,0,1,0.4718772,left,0.752991595,0.23007759053951543,2,0,0
123,color,color,left,0,1,0.6958901,left,0.752991595,0.23007759053951543,2,0,0
123,color,color,left,0,0,1.207957,right,0.752991595,0.23007759053951543,2,0,0
123,color,color,right,0,1,1.3518432,right,0.752991595,0.23007759053951543,2,0,0
123,color,color,left,0,1,1.1118427,left,0.752991595,0.23007759053951543,2,0,0
123,color,color,left,0,1,0.7278408,left,0.752991595,0.23007759053951543,2,0,0
123,color,color,right,0,1,0.8718253,right,0.752991595,0.23007759053951543,2,0,0
123,color,color,left,0,1,0.7438099,left,0.752991595,0.23007759053951543,2,0,0
123,color,color,right,0,1,0.7439232,right,0.752991595,0.23007759053951543,2,0,0
123,color,color,right,0,1,0.7118709,right,0.752991595,0.23007759053951543,2,0,0
123,color,color,right,0,1,0.7438184,right,0.752991595,0.23007759053951543,2,0,0
123,color,color,right,0,1,0.6319357,right,0.752991595,0.23007759053951543,2,0,0
123,color,color,left,0,1,0.4878466,left,0.752991595,0.23007759053951543,2,0,0
123,color,color,left,0,1,0.8398269,left,0.752991595,0.23007759053951543,2,0,0
123,color,color,right,0,1,0.6958506,right,0.752991595,0.23007759053951543,2,0,0
123,color,color,left,0,1,0.6159127,left,0.752991595,0.23007759053951543,2,0,0
123,color,color,left,0,1,0.5998463,left,0.752991595,0.23007759053951543,2,0,0
123,shape,shape,left,0,1,0.82383,left,0.814260175,0.2387638104119036,2,0,0
123,shape,shape,left,0,1,0.8238756,left,0.814260175,0.2387638104119036,2,0,0
123,shape,shape,right,0,1,1.0478728,right,0.814260175,0.2387638104119036,2,0,0
123,shape,shape,right,0,1,1.2238395,right,0.814260175,0.2387638104119036,2,0,0
123,shape,shape,left,0,1,0.7599614,left,0.814260175,0.2387638104119036,2,0,0
123,shape,shape,right,0,1,0.8077953,right,0.814260175,0.2387638104119036,2,0,0
123,shape,shape,right,0,1,0.80786500000000006,right,0.814260175,0.2387638104119036,2,0,0
123,shape,shape,right,0,1,0.7597989,right,0.814260175,0.2387638104119036,2,0,0
123,shape,shape,left,0,1,0.7758917,left,0.814260175,0.2387638104119036,2,0,0
123,shape,shape,left,0,1,0.7438943,left,0.814260175,0.2387638104119036,2,0,0
123,shape,shape,left,0,1,1.2558987,left,0.814260175,0.2387638104119036,2,0,0
123,shape,shape,right,0,1,0.7598302,right,0.814260175,0.2387638104119036,2,0,0
123,shape,shape,left,0,1,0.5678438,left,0.814260175,0.2387638104119036,2,0,0
123,shape,shape,right,0,1,0.5518696,right,0.814260175,0.2387638104119036,2,0,0
123,shape,shape,right,0,1,0.4879747,right,0.814260175,0.2387638104119036,2,0,0
123,shape,shape,left,0,1,0.4717263,left,0.814260175,0.2387638104119036,2,0,0
123,shape,shape,right,0,1,0.6798739,right,0.814260175,0.2387638104119036,2,0,0
123,shape,shape,left,0,1,0.7438588,left,0.814260175,0.2387638104119036,2,0,0
123,shape,shape,right,0,1,1.3359017,right,0.814260175,0.2387638104119036,2,0,0
123,shape,shape,left,0,1,0.8558013,left,0.814260175,0.2387638104119036,2,0,0
123,shift,shape,left,0,1,0.695867,left,0.858611425,0.4797451054867895,6.4,0,0
123,shift,shape,left,0,1,0.5838984,left,0.858611425,0.4797451054867895,6.4,0,0
123,shift,shape,left,0,1,0.7438511,left,0.858611425,0.4797451054867895,6.4,0,0
123,shift,color,left,1,1,0.7437816,left,0.858611425,0.4797451054867895,6.4,0,0
123,shift,color,left,0,1,1.0159065,left,0.858611425,0.4797451054867895,6.4,0,0
123,shift,color,left,0,1,0.615901,left,0.858611425,0.4797451054867895,6.4,0,0
123,shift,shape,left,1,0,1.3518242,right,0.858611425,0.4797451054867895,6.4,0,0
123,shift,color,left,1,1,1.063838,left,0.858611425,0.4797451054867895,6.4,0,0
123,shift,color,left,0,1,0.8558818,left,0.858611425,0.4797451054867895,6.4,0,0
123,shift,shape,right,1,1,3.8318581,right,0.858611425,0.4797451054867895,6.4,1,0
123,shift,color,right,1,1,1.335843,right,0.858611425,0.4797451054867895,6.4,0,0
123,shift,shape,right,1,1,1.0638668,right,0.858611425,0.4797451054867895,6.4,0,0
123,shift,shape,right,0,1,0.7439298,right,0.858611425,0.4797451054867895,6.4,0,0
123,shift,color,right,1,1,0.647789,right,0.858611425,0.4797451054867895,6.4,0,0
123,shift,shape,right,1,1,1.031854,right,0.858611425,0.4797451054867895,6.4,0,0
123,shift,shape,left,0,1,2.3759625,left,0.858611425,0.4797451054867895,6.4,1,0
123,shift,color,right,1,1,0.8717186,right,0.858611425,0.4797451054867895,6.4,0,0
123,shift,shape,left,1,1,0.6479217,left,0.858611425,0.4797451054867895,6.4,0,0
123,shift,color,right,1,1,0.5518416,right,0.858611425,0.4797451054867895,6.4,0,0
123,shift,shape,right,1,1,0.6638051,right,0.858611425,0.4797451054867895,6.4,0,0
123,shift,color,right,1,1,0.9519833,right,0.858611425,0.4797451054867895,6.4,0,0
123,shift,shape,right,1,1,0.7277008,right,0.858611425,0.4797451054867895,6.4,0,0
123,shift,shape,left,0,1,0.9359205,left,0.858611425,0.4797451054867895,6.4,0,0
123,shift,color,right,1,1,1.0638487,right,0.858611425,0.4797451054867895,6.4,0,0
123,shift,color,right,0,1,0.6159049,right,0.858611425,0.4797451054867895,6.4,0,0
123,shift,color,left,0,1,0.7278175,left,0.858611425,0.4797451054867895,6.4,0,0
123,shift,shape,left,1,1,0.503878,left,0.858611425,0.4797451054867895,6.4,0,0
123,shift,color,right,1,1,0.6318442,right,0.858611425,0.4797451054867895,6.4,0,0
123,shift,color,left,0,1,0.5519756,left,0.858611425,0.4797451054867895,6.4,0,0
123,shift,shape,right,1,1,0.8557498,right,0.858611425,0.4797451054867895,6.4,0,0
123,shift,shape,right,0,1,0.9678731,right,0.858611425,0.4797451054867895,6.4,0,0
123,shift,shape,right,0,1,0.7118762,right,0.858611425,0.4797451054867895,6.4,0,0
123,shift,color,left,1,1,0.5358974,left,0.858611425,0.4797451054867895,6.4,0,0
123,shift,color,left,0,1,0.6638114,left,0.858611425,0.4797451054867895,6.4,0,0
123,shift,color,right,0,1,0.599859,right,0.858611425,0.4797451054867895,6.4,0,0
123,shift,shape,left,1,1,0.5359103,left,0.858611425,0.4797451054867895,6.4,0,0
123,shift,shape,left,0,1,0.4718306,left,0.858611425,0.4797451054867895,6.4,0,0
123,shift,color,left,1,1,0.8718615,left,0.858611425,0.4797451054867895,6.4,0,0
123,shift,color,right,0,1,0.3598942,right,0.858611425,0.4797451054867895,6.4,0,0
123,shift,color,right,0,1,0.6638586,right,0.858611425,0.4797451054867895,6.4,0,0
123,shift,shape,left,1,0,0.7598645,right,0.858611425,0.4797451054867895,6.4,0,0
123,shift,shape,right,0,1,0.8398711,right,0.858611425,0.4797451054867895,6.4,0,0
123,shift,shape,right,0,1,1.1118361,right,0.858611425,0.4797451054867895,6.4,0,0
123,shift,color,right,1,1,1.4318532,right,0.858611425,0.4797451054867895,6.4,0,0
123,shift,color,left,0,1,0.7278771,left,0.858611425,0.4797451054867895,6.4,0,0
123,shift,color,left,0,1,0.6318664,left,0.858611425,0.4797451054867895,6.4,0,0
123,shift,color,right,0,1,0.6959251,right,0.858611425,0.4797451054867895,6.4,0,0
123,shift,shape,right,1,1,0.8397916,right,0.858611425,0.4797451054867895,6.4,0,0
123,shift,color,left,1,1,0.5199104,left,0.858611425,0.4797451054867895,6.4,0,0
123,shift,shape,left,1,1,1.2398898,left,0.858611425,0.4797451054867895,6.4,0,0
123,shift,color,right,1,1,0.6797795,right,0.858611425,0.4797451054867895,6.4,0,0
123,shift,shape,left,1,1,0.9998761,left,0.858611425,0.4797451054867895,6.4,0,0
123,shift,color,right,1,1,0.6158663,right,0.858611425,0.4797451054867895,6.4,0,0
123,shift,color,right,0,1,0.6798286,right,0.858611425,0.4797451054867895,6.4,0,0
123,shift,shape,left,1,1,0.7599189,left,0.858611425,0.4797451054867895,6.4,0,0
123,shift,shape,right,0,1,0.6317385,right,0.858611425,0.4797451054867895,6.4,0,0
123,shift,shape,left,0,1,0.6159269,left,0.858611425,0.4797451054867895,6.4,0,0
123,shift,color,left,1,1,0.9198958,left,0.858611425,0.4797451054867895,6.4,0,0
123,shift,shape,right,1,1,0.9998204,right,0.858611425,0.4797451054867895,6.4,0,0
123,shift,shape,right,0,1,0.6637988,right,0.858611425,0.4797451054867895,6.4,0,0
123,shift,shape,left,0,1,0.6959001,left,0.858611425,0.4797451054867895,6.4,0,0
123,shift,shape,right,0,1,0.759926,right,0.858611425,0.4797451054867895,6.4,0,0
123,shift,color,left,1,1,0.8397905,left,0.858611425,0.4797451054867895,6.4,0,0
123,shift,color,left,0,1,0.9039441,left,0.858611425,0.4797451054867895,6.4,0,0
124,color,color,left,0,1,0.5736825,left,0.427360775,0.11803293764235952,2,0,0
124,color,color,right,0,1,0.7599044,right,0.427360775,0.11803293764235952,2,0,0
124,color,color,right,0,1,0.3918777,right,0.427360775,0.11803293764235952,2,0,0
124,color,color,left,0,1,0.5838668,left,0.427360775,0.11803293764235952,2,0,0
124,color,color,right,0,1,0.2798029,right,0.427360775,0.11803293764235952,2,0,0
124,color,color,right,0,1,0.4239271,right,0.427360775,0.11803293764235952,2,0,0
124,color,color,left,0,1,0.3758576,left,0.427360775,0.11803293764235952,2,0,0
124,color,color,right,0,1,0.2478073,right,0.427360775,0.11803293764235952,2,0,0
124,color,color,right,0,1,0.503894,right,0.427360775,0.11803293764235952,2,0,0
124,color,color,left,0,1,0.5359421,left,0.427360775,0.11803293764235952,2,0,0
124,color,color,left,0,1,0.4237816,left,0.427360775,0.11803293764235952,2,0,0
124,color,color,left,0,1,0.3758661,left,0.427360775,0.11803293764235952,2,0,0
124,color,color,right,0,1,0.3918779,right,0.427360775,0.11803293764235952,2,0,0
124,color,color,right,0,1,0.4238748,right,0.427360775,0.11803293764235952,2,0,0
124,color,color,left,0,1,0.3758211,left,0.427360775,0.11803293764235952,2,0,0
124,color,color,right,0,1,0.4078375,right,0.427360775,0.11803293764235952,2,0,0
124,color,color,left,0,1,0.311916,left,0.427360775,0.11803293764235952,2,0,0
124,color,color,left,0,1,0.4558728,left,0.427360775,0.11803293764235952,2,0,0
124,color,color,right,0,1,0.3438605,right,0.427360775,0.11803293764235952,2,0,0
124,color,color,left,0,1,0.3599448,left,0.427360775,0.11803293764235952,2,0,0
124,shape,shape,left,0,1,0.5197896,left,0.47585482,0.18440063611023857,2,0,0
124,shape,shape,right,0,1,0.5358489,right,0.47585482,0.18440063611023857,2,0,0
124,shape,shape,left,0,1,0.311858,left,0.47585482,0.18440063611023857,2,0,0
124,shape,shape,right,0,1,0.3438821,right,0.47585482,0.18440063611023857,2,0,0
124,shape,shape,left,0,1,0.3918335,left,0.47585482,0.18440063611023857,2,0,0
124,shape,shape,right,0,1,0.4879027,right,0.47585482,0.18440063611023857,2,0,0
124,shape,shape,left,0,1,0.3598522,left,0.47585482,0.18440063611023857,2,0,0
124,shape,shape,right,0,1,0.7118255,right,0.47585482,0.18440063611023857,2,0,0
124,shape,shape,left,0,1,0.407906,left,0.47585482,0.18440063611023857,2,0,0
124,shape,shape,right,0,1,0.3758119,right,0.47585482,0.18440063611023857,2,0,0
124,shape,shape,left,0,1,0.3118556,left,0.47585482,0.18440063611023857,2,0,0
124,shape,shape,left,0,0,0.3758741,right,0.47585482,0.18440063611023857,2,0,0
124,shape,shape,left,0,1,0.6318329,left,0.47585482,0.18440063611023857,2,0,0
124,shape,shape,right,0,1,0.4239482,right,0.47585482,0.18440063611023857,2,0,0
124,shape,shape,right,0,1,0.5198272,right,0.47585482,0.18440063611023857,2,0,0
124,shape,shape,left,0,1,1.0798906,left,0.47585482,0.18440063611023857,2,1,0
124,shape,shape,right,0,1,0.5998002,right,0.47585482,0.18440063611023857,2,0,0
124,shape,shape,left,0,1,0.3598748,left,0.47585482,0.18440063611023857,2,0,0
124,shape,shape,right,0,1,0.5038472,right,0.47585482,0.18440063611023857,2,0,0
124,shape,shape,right,0,0,0.2638352,left,0.47585482,0.18440063611023857,2,0,0
124,shift,shape,left,0,1,0.5519252,left,0.677610253125,0.2518351584411404,6.4,0,0
124,shift,color,right,1,1,0.3598593,right,0.677610253125,0.2518351584411404,6.4,0,0
124,shift,color,left,0,1,0.8558224,left,0.677610253125,0.2518351584411404,6.4,0,0
124,shift,color,right,0,1,0.7598943,right,0.677610253125,0.2518351584411404,6.4,0,0
124,shift,shape,right,1,1,0.6479243,right,0.677610253125,0.2518351584411404,6.4,0,0
124,shift,shape,right,0,1,0.4237996,right,0.677610253125,0.2518351584411404,6.4,0,0
124,shift,shape,right,0,1,0.4238437,right,0.677610253125,0.2518351584411404,6.4,0,0
124,shift,color,right,1,1,0.3758479,right,0.677610253125,0.2518351584411404,6.4,0,0
124,shift,color,right,0,1,0.5359258,right,0.677610253125,0.2518351584411404,6.4,0,0
124,shift,color,right,0,1,0.3598472,right,0.677610253125,0.2518351584411404,6.4,0,0
124,shift,color,left,0,1,0.3758305,left,0.677610253125,0.2518351584411404,6.4,0,0
124,shift,shape,left,1,1,0.5679667,left,0.677610253125,0.2518351584411404,6.4,0,0
124,shift,color,right,1,1,0.9676394,right,0.677610253125,0.2518351584411404,6.4,0,0
124,shift,color,right,0,1,0.6478521,right,0.677610253125,0.2518351584411404,6.4,0,0
124,shift,color,right,0,1,0.3279215,right,0.677610253125,0.2518351584411404,6.4,0,0
124,shift,shape,left,1,1,1.0478092,left,0.677610253125,0.2518351584411404,6.4,0,0
124,shift,shape,left,0,1,0.5839614,left,0.677610253125,0.2518351584411404,6.4,0,0
124,shift,color,left,1,1,0.6477423,left,0.677610253125,0.2518351584411404,6.4,0,0
124,shift,color,left,0,1,0.4398763,left,0.677610253125,0.2518351584411404,6.4,0,0
124,shift,color,right,0,1,1.2239224,right,0.677610253125,0.2518351584411404,6.4,0,0
124,shift,shape,right,1,0,0.5518229,left,0.677610253125,0.2518351584411404,6.4,0,0
124,shift,shape,right,0,1,0.7758351,right,0.677610253125,0.2518351584411404,6.4,0,0
124,shift,color,right,1,1,0.983948,right,0.677610253125,0.2518351584411404,6.4,0,0
124,shift,color,left,0,1,0.9357931,left,0.677610253125,0.2518351584411404,6.4,0,0
124,shift,shape,left,1,1,0.9839064,left,0.677610253125,0.2518351584411404,6.4,0,0
124,shift,color,left,1,1,0.4558046,left,0.677610253125,0.2518351584411404,6.4,0,0
124,shift,color,left,0,1,0.7438644,left,0.677610253125,0.2518351584411404,6.4,0,0
124,shift,color,right,0,1,0.3919195,right,0.677610253125,0.2518351584411404,6.4,0,0
124,shift,shape,right,1,1,0.3437645,right,0.677610253125,0.2518351584411404,6.4,0,0
124,shift,shape,right,0,0,0.4079026,left,0.677610253125,0.2518351584411404,6.4,0,0
124,shift,color,left,1,1,0.4717937,left,0.677610253125,0.2518351584411404,6.4,0,0
124,shift,color,left,0,1,0.3759418,left,0.677610253125,0.2518351584411404,6.4,0,0
124,shift,shape,right,1,1,0.6478682,right,0.677610253125,0.2518351584411404,6.4,0,0
124,shift,shape,left,0,1,0.7278628,left,0.677610253125,0.2518351584411404,6.4,0,0
124,shift,color,right,1,1,1.0797779,right,0.677610253125,0.2518351584411404,6.4,0,0
124,shift,shape,right,1,1,0.5359055,right,0.677610253125,0.2518351584411404,6.4,0,0
124,shift,shape,left,0,1,0.615857,left,0.677610253125,0.2518351584411404,6.4,0,0
124,shift,color,right,1,1,0.4558104,right,0.677610253125,0.2518351584411404,6.4,0,0
124,shift,color,left,0,1,0.8239872,left,0.677610253125,0.2518351584411404,6.4,0,0
124,shift,shape,right,1,1,0.3597662,right,0.677610253125,0.2518351584411404,6.4,0,0
124,shift,color,left,1,0,0.5678976,right,0.677610253125,0.2518351584411404,6.4,0,0
124,shift,shape,right,1,1,1.0478876,right,0.677610253125,0.2518351584411404,6.4,0,0
124,shift,shape,left,0,1,0.8238134,left,0.677610253125,0.2518351584411404,6.4,0,0
124,shift,shape,right,0,1,0.5198296,right,0.677610253125,0.2518351584411404,6.4,0,0
124,shift,color,left,1,1,0.8879056,left,0.677610253125,0.2518351584411404,6.4,0,0
124,shift,shape,right,1,1,0.4879,right,0.677610253125,0.2518351584411404,6.4,0,0
124,shift,color,left,1,1,0.3757991,left,0.677610253125,0.2518351584411404,6.4,0,0
124,shift,shape,left,1,1,0.5838837,left,0.677610253125,0.2518351584411404,6.4,0,0
124,shift,color,right,1,1,0.7758699,right,0.677610253125,0.2518351584411404,6.4,0,0
124,shift,shape,left,1,1,0.5838819,left,0.677610253125,0.2518351584411404,6.4,0,0
124,shift,color,left,1,1,1.0958436,left,0.677610253125,0.2518351584411404,6.4,0,0
124,shift,shape,left,1,1,1.1118643,left,0.677610253125,0.2518351584411404,6.4,0,0
124,shift,color,left,1,1,0.9358315,left,0.677610253125,0.2518351584411404,6.4,0,0
124,shift,shape,right,1,1,0.5518843,right,0.677610253125,0.2518351584411404,6.4,0,0
124,shift,shape,left,0,1,0.3598382,left,0.677610253125,0.2518351584411404,6.4,0,0
124,shift,shape,right,0,1,0.7598756,right,0.677610253125,0.2518351584411404,6.4,0,0
124,shift,color,right,1,0,0.5358799,left,0.677610253125,0.2518351584411404,6.4,0,0
124,shift,shape,left,1,1,0.8718764,left,0.677610253125,0.2518351584411404,6.4,0,0
124,shift,shape,left,0,0,0.7118804,right,0.677610253125,0.2518351584411404,6.4,0,0
124,shift,shape,right,0,1,1.1757793,right,0.677610253125,0.2518351584411404,6.4,0,0
124,shift,shape,left,0,1,0.9039295,left,0.677610253125,0.2518351584411404,6.4,0,0
124,shift,color,left,1,1,1.1119011,left,0.677610253125,0.2518351584411404,6.4,0,0
124,shift,shape,left,1,1,0.9358546,left,0.677610253125,0.2518351584411404,6.4,0,0
124,shift,color,right,1,1,0.8558058,right,0.677610253125,0.2518351584411404,6.4,0,0
125,shape,shape,right,0,1,0.5742356,right,0.6153792499999999,0.1470623640567623,2,0,0
125,shape,shape,left,0,1,0.7598792,left,0.6153792499999999,0.1470623640567623,2,0,0
125,shape,shape,left,0,1,0.5358503,left,0.6153792499999999,0.1470623640567623,2,0,0
125,shape,shape,right,0,1,0.5838443,right,0.6153792499999999,0.1470623640567623,2,0,0
125,shape,shape,right,0,1,0.6158523,right,0.6153792499999999,0.1470623640567623,2,0,0
125,shape,shape,left,0,1,0.43992,left,0.6153792499999999,0.1470623640567623,2,0,0
125,shape,shape,right,0,1,0.4718628,right,0.6153792499999999,0.1470623640567623,2,0,0
125,shape,shape,left,0,1,1.0159075,left,0.6153792499999999,0.1470623640567623,2,0,0
125,shape,shape,right,0,1,0.5357519,right,0.6153792499999999,0.1470623640567623,2,0,0
125,shape,shape,right,0,1,0.7918907,right,0.6153792499999999,0.1470623640567623,2,0,0
125,shape,shape,left,0,1,0.5038803,left,0.6153792499999999,0.1470623640567623,2,0,0
125,shape,shape,left,0,1,0.6478127,left,0.6153792499999999,0.1470623640567623,2,0,0
125,shape,shape,left,0,1,0.7758867,left,0.6153792499999999,0.1470623640567623,2,0,0
125,shape,shape,right,0,1,0.5038166,right,0.6153792499999999,0.1470623640567623,2,0,0
125,shape,shape,left,0,1,0.6319694,left,0.6153792499999999,0.1470623640567623,2,0,0
125,shape,shape,left,0,1,0.4077506,left,0.6153792499999999,0.1470623640567623,2,0,0
125,shape,shape,left,0,1,0.7118779,left,0.6153792499999999,0.1470623640567623,2,0,0
125,shape,shape,right,0,1,0.5038752,right,0.6153792499999999,0.1470623640567623,2,0,0
125,shape,shape,right,0,1,0.7278335,right,0.6153792499999999,0.1470623640567623,2,0,0
125,shape,shape,right,0,1,0.5678875,right,0.6153792499999999,0.1470623640567623,2,0,0
125,color,color,right,0,1,0.7278863,right,0.6262633400000001,0.18347409987294036,2,0,0
125,color,color,left,0,1,0.5038082,left,0.6262633400000001,0.18347409987294036,2,0,0
125,color,color,left,0,1,0.7438928,left,0.6262633400000001,0.18347409987294036,2,0,0
125,color,color,right,0,1,0.6478905,right,0.6262633400000001,0.18347409987294036,2,0,0
125,color,color,left,0,1,0.5838739,left,0.6262633400000001,0.18347409987294036,2,0,0
125,color,color,right,0,1,0.6478011,right,0.6262633400000001,0.18347409987294036,2,0,0
125,color,color,left,0,1,0.9518505,left,0.6262633400000001,0.18347409987294036,2,0,0
125,color,color,right,0,1,0.679884,right,0.6262633400000001,0.18347409987294036,2,0,0
125,color,color,left,0,1,0.4558706,left,0.6262633400000001,0.18347409987294036,2,0,0
125,color,color,left,0,1,1.1438193,left,0.6262633400000001,0.18347409987294036,2,0,0
125,color,color,left,0,1,0.6318905,left,0.6262633400000001,0.18347409987294036,2,0,0
125,color,color,left,0,1,0.4238955,left,0.6262633400000001,0.18347409987294036,2,0,0
125,color,color,right,0,1,0.4878387,right,0.6262633400000001,0.18347409987294036,2,0,0
125,color,color,right,0,1,0.7278691,right,0.6262633400000001,0.18347409987294036,2,0,0
125,color,color,left,0,1,0.5038412,left,0.6262633400000001,0.18347409987294036,2,0,0
125,color,color,right,0,1,0.5358329,right,0.6262633400000001,0.18347409987294036,2,0,0
125,color,color,right,0,1,0.4078902,right,0.6262633400000001,0.18347409987294036,2,0,0
125,color,color,right,0,1,0.4398556,right,0.6262633400000001,0.18347409987294036,2,0,0
125,color,color,left,0,1,0.5518988,left,0.6262633400000001,0.18347409987294036,2,0,0
125,color,color,right,0,1,0.7278771,right,0.6262633400000001,0.18347409987294036,2,0,0
125,shift,shape,right,1,1,0.72784,right,0.7826091015625,0.27595356541744853,6.4,0,0
125,shift,shape,left,0,1,0.7918149,left,0.7826091015625,0.27595356541744853,6.4,0,0
125,shift,color,right,1,1,0.6798868,right,0.7826091015625,0.27595356541744853,6.4,0,0
125,shift,color,right,0,1,0.7119188,right,0.7826091015625,0.27595356541744853,6.4,0,0
125,shift,color,left,0,1,0.3918218,left,0.7826091015625,0.27595356541744853,6.4,0,0
125,shift,color,left,0,1,0.5039086,left,0.7826091015625,0.27595356541744853,6.4,0,0
125,shift,shape,right,1,1,0.9678151,right,0.7826091015625,0.27595356541744853,6.4,0,0
125,shift,shape,right,0,1,0.5998637,right,0.7826091015625,0.27595356541744853,6.4,0,0
125,shift,shape,left,0,1,1.1438411,left,0.7826091015625,0.27595356541744853,6.4,0,0
125,shift,color,left,1,1,1.2238204,left,0.7826091015625,0.27595356541744853,6.4,0,0
125,shift,color,right,0,1,0.3918642,right,0.7826091015625,0.27595356541744853,6.4,0,0
125,shift,shape,left,1,1,0.8238977,left,0.7826091015625,0.27595356541744853,6.4,0,0
125,shift,shape,right,0,1,0.3598018,right,0.7826091015625,0.27595356541744853,6.4,0,0
125,shift,color,left,1,1,0.9039223,left,0.7826091015625,0.27595356541744853,6.4,0,0
125,shift,shape,right,1,1,0.871977,right,0.7826091015625,0.27595356541744853,6.4,0,0
125,shift,shape,left,0,1,0.6159054,left,0.7826091015625,0.27595356541744853,6.4,0,0
125,shift,shape,right,0,1,0.6317356,right,0.7826091015625,0.27595356541744853,6.4,0,0
125,shift,shape,right,0,1,1.1278289,right,0.7826091015625,0.27595356541744853,6.4,0,0
125,shift,color,right,1,1,0.4237941,right,0.7826091015625,0.27595356541744853,6.4,0,0
125,shift,color,left,0,1,0.4398818,left,0.7826091015625,0.27595356541744853,6.4,0,0
125,shift,color,right,0,1,0.9998625,right,0.7826091015625,0.27595356541744853,6.4,0,0
125,shift,shape,left,1,0,0.695935,right,0.7826091015625,0.27595356541744853,6.4,0,0
125,shift,shape,left,0,0,0.8238217,right,0.7826091015625,0.27595356541744853,6.4,0,0
125,shift,color,left,1,1,0.5678514,left,0.7826091015625,0.27595356541744853,6.4,0,0
125,shift,shape,right,1,1,1.0958423,right,0.7826091015625,0.27595356541744853,6.4,0,0
125,shift,shape,left,0,1,0.6798555,left,0.7826091015625,0.27595356541744853,6.4,0,0
125,shift,shape,right,0,1,1.0638642,right,0.7826091015625,0.27595356541744853,6.4,0,0
125,shift,color,left,1,1,1.2718346,left,0.7826091015625,0.27595356541744853,6.4,0,0
125,shift,color,left,0,1,0.5998675,left,0.7826091015625,0.27595356541744853,6.4,0,0
125,shift,shape,left,1,1,0.5838723,left,0.7826091015625,0.27595356541744853,6.4,0,0
125,shift,color,left,1,1,0.7118392,left,0.7826091015625,0.27595356541744853,6.4,0,0
125,shift,shape,right,1,0,0.727875,left,0.7826091015625,0.27595356541744853,6.4,0,0
125,shift,color,left,1,1,0.6958789,left,0.7826091015625,0.27595356541744853,6.4,0,0
125,shift,color,right,0,0,0.9198465,left,0.7826091015625,0.27595356541744853,6.4,0,0
125,shift,color,right,0,1,0.5998986,right,0.7826091015625,0.27595356541744853,6.4,0,0
125,shift,color,left,0,1,0.6478019,left,0.7826091015625,0.27595356541744853,6.4,0,0
125,shift,shape,right,1,1,1.0798442,right,0.7826091015625,0.27595356541744853,6.4,0,0
125,shift,shape,right,0,1,0.9359073,right,0.7826091015625,0.27595356541744853,6.4,0,0
125,shift,shape,left,0,1,0.3598439,left,0.7826091015625,0.27595356541744853,6.4,0,0
125,shift,color,left,1,1,0.4558532,left,0.7826091015625,0.27595356541744853,6.4,0,0
125,shift,color,right,0,1,0.6798568,right,0.7826091015625,0.27595356541744853,6.4,0,0
125,shift,shape,right,1,1,1.0478675,right,0.7826091015625,0.27595356541744853,6.4,0,0
125,shift,color,right,1,0,0.8878773,left,0.7826091015625,0.27595356541744853,6.4,0,0
125,shift,color,right,0,1,0.8078805,right,0.7826091015625,0.27595356541744853,6.4,0,0
125,shift,color,right,0,0,0.663793,left,0.7826091015625,0.27595356541744853,6.4,0,0
125,shift,shape,left,1,0,1.8478889,right,0.7826091015625,0.27595356541744853,6.4,1,0
125,shift,shape,left,0,1,0.7439185,left,0.7826091015625,0.27595356541744853,6.4,0,0
125,shift,color,left,1,1,0.5677536,left,0.7826091015625,0.27595356541744853,6.4,0,0
125,shift,color,right,0,1,0.5198934,right,0.7826091015625,0.27595356541744853,6.4,0,0
125,shift,color,right,0,1,0.8078831,right,0.7826091015625,0.27595356541744853,6.4,0,0
125,shift,shape,right,1,1,1.0958388,right,0.7826091015625,0.27595356541744853,6.4,0,0
125,shift,shape,left,0,1,0.5678886,left,0.7826091015625,0.27595356541744853,6.4,0,0
125,shift,color,left,1,1,0.5198276,left,0.7826091015625,0.27595356541744853,6.4,0,0
125,shift,shape,right,1,1,0.9198699,right,0.7826091015625,0.27595356541744853,6.4,0,0
125,shift,color,right,1,1,0.743915,right,0.7826091015625,0.27595356541744853,6.4,0,0
125,shift,shape,left,1,1,0.9197922,left,0.7826091015625,0.27595356541744853,6.4,0,0
125,shift,color,left,1,1,0.8238856,left,0.7826091015625,0.27595356541744853,6.4,0,0
125,shift,shape,right,1,1,0.5998662,right,0.7826091015625,0.27595356541744853,6.4,0,0
125,shift,color,left,1,1,1.5278438,left,0.7826091015625,0.27595356541744853,6.4,0,0
125,shift,shape,left,1,0,0.7759616,right,0.7826091015625,0.27595356541744853,6.4,0,0
125,shift,shape,left,0,1,0.5836729,left,0.7826091015625,0.27595356541744853,6.4,0,0
125,shift,shape,left,0,1,0.711953,left,0.7826091015625,0.27595356541744853,6.4,0,0
125,shift,color,right,1,1,0.8878296,right,0.7826091015625,0.27595356541744853,6.4,0,0
125,shift,color,right,0,1,0.9838894,right,0.7826091015625,0.27595356541744853,6.4,0,0
127,shape,shape,right,0,1,0.6019784,right,0.51116973,0.13329750320063488,2,0,0
127,shape,shape,right,0,1,0.9839163,right,0.51116973,0.13329750320063488,2,1,0
127,shape,shape,right,0,1,0.535786,right,0.51116973,0.13329750320063488,2,0,0
127,shape,shape,right,0,1,0.5198981,right,0.51116973,0.13329750320063488,2,0,0
127,shape,shape,right,0,1,0.5198183,right,0.51116973,0.13329750320063488,2,0,0
127,shape,shape,left,0,1,0.5838545,left,0.51116973,0.13329750320063488,2,0,0
127,shape,shape,left,0,1,0.4558769,left,0.51116973,0.13329750320063488,2,0,0
127,shape,shape,left,0,1,0.3758644,left,0.51116973,0.13329750320063488,2,0,0
127,shape,shape,left,0,1,0.4238788,left,0.51116973,0.13329750320063488,2,0,0
127,shape,shape,left,0,1,0.407811,left,0.51116973,0.13329750320063488,2,0,0
127,shape,shape,left,0,1,0.4399052,left,0.51116973,0.13329750320063488,2,0,0
127,shape,shape,right,0,1,0.4078766,right,0.51116973,0.13329750320063488,2,0,0
127,shape,shape,left,0,1,0.5359154,left,0.51116973,0.13329750320063488,2,0,0
127,shape,shape,left,0,1,0.375782,left,0.51116973,0.13329750320063488,2,0,0
127,shape,shape,right,0,1,0.4878872,right,0.51116973,0.13329750320063488,2,0,0
127,shape,shape,right,0,1,0.4878238,right,0.51116973,0.13329750320063488,2,0,0
127,shape,shape,left,0,1,0.5038739,left,0.51116973,0.13329750320063488,2,0,0
127,shape,shape,right,0,1,0.4398593,right,0.51116973,0.13329750320063488,2,0,0
127,shape,shape,right,0,1,0.6479005,right,0.51116973,0.13329750320063488,2,0,0
127,shape,shape,left,0,1,0.487888,left,0.51116973,0.13329750320063488,2,0,0
127,color,color,left,0,1,0.6158209,left,0.697456525,0.23220804795258354,2,0,0
127,color,color,right,0,1,0.6318526,right,0.697456525,0.23220804795258354,2,0,0
127,color,color,right,0,0,0.871863,left,0.697456525,0.23220804795258354,2,0,0
127,color,color,left,0,0,0.7118568,right,0.697456525,0.23220804795258354,2,0,0
127,color,color,right,0,0,0.4878356,left,0.697456525,0.23220804795258354,2,0,0
127,color,color,left,0,1,1.1759894,left,0.697456525,0.23220804795258354,2,0,0
127,color,color,left,0,1,1.1917337,left,0.697456525,0.23220804795258354,2,0,0
127,color,color,left,0,1,1.0318247,left,0.697456525,0.23220804795258354,2,0,0
127,color,color,right,0,1,0.8719411,right,0.697456525,0.23220804795258354,2,0,0
127,color,color,left,0,1,0.791807,left,0.697456525,0.23220804795258354,2,0,0
127,color,color,right,0,1,0.711894,right,0.697456525,0.23220804795258354,2,0,0
127,color,color,right,0,1,0.6798208,right,0.697456525,0.23220804795258354,2,0,0
127,color,color,right,0,1,0.4558744,right,0.697456525,0.23220804795258354,2,0,0
127,color,color,left,0,1,0.6158447,left,0.697456525,0.23220804795258354,2,0,0
127,color,color,right,0,1,0.5678284,right,0.697456525,0.23220804795258354,2,0,0
127,color,color,right,0,1,0.695922,right,0.697456525,0.23220804795258354,2,0,0
127,color,color,left,0,1,0.40789570000000003,left,0.697456525,0.23220804795258354,2,0,0
127,color,color,left,0,1,0.4558017,left,0.697456525,0.23220804795258354,2,0,0
127,color,color,left,0,1,0.519911,left,0.697456525,0.23220804795258354,2,0,0
127,color,color,right,0,1,0.455813,right,0.697456525,0.23220804795258354,2,0,0
127,shift,color,left,0,1,0.5518574,left,0.8738578171875,0.3603947028150604,6.4,0,0
127,shift,shape,right,1,0,0.6799168,left,0.8738578171875,0.3603947028150604,6.4,0,0
127,shift,shape,left,0,1,1.2077843,left,0.8738578171875,0.3603947028150604,6.4,0,0
127,shift,shape,right,0,1,0.5998665,right,0.8738578171875,0.3603947028150604,6.4,0,0
127,shift,color,left,1,1,1.2879041,left,0.8738578171875,0.3603947028150604,6.4,0,0
127,shift,color,left,0,1,1.4637944,left,0.8738578171875,0.3603947028150604,6.4,0,0
127,shift,color,left,0,1,0.5998704,left,0.8738578171875,0.3603947028150604,6.4,0,0
127,shift,color,left,0,1,0.4878761,left,0.8738578171875,0.3603947028150604,6.4,0,0
127,shift,shape,left,1,1,0.5359209,left,0.8738578171875,0.3603947028150604,6.4,0,0
127,shift,shape,left,0,1,0.5038604,left,0.8738578171875,0.3603947028150604,6.4,0,0
127,shift,color,left,1,1,0.5037872,left,0.8738578171875,0.3603947028150604,6.4,0,0
127,shift,shape,right,1,1,1.2399722,right,0.8738578171875,0.3603947028150604,6.4,0,0
127,shift,color,right,1,1,0.7597801,right,0.8738578171875,0.3603947028150604,6.4,0,0
127,shift,shape,left,1,1,1.0479366,left,0.8738578171875,0.3603947028150604,6.4,0,0
127,shift,shape,right,0,1,0.6637785,right,0.8738578171875,0.3603947028150604,6.4,0,0
127,shift,color,left,1,1,0.4878475,left,0.8738578171875,0.3603947028150604,6.4,0,0
127,shift,color,right,0,1,0.4878357,right,0.8738578171875,0.3603947028150604,6.4,0,0
127,shift,shape,right,1,1,0.4558834,right,0.8738578171875,0.3603947028150604,6.4,0,0
127,shift,color,right,1,1,0.5678356,right,0.8738578171875,0.3603947028150604,6.4,0,0
127,shift,color,right,0,0,0.999879,left,0.8738578171875,0.3603947028150604,6.4,0,0
127,shift,shape,right,1,1,1.3678692,right,0.8738578171875,0.3603947028150604,6.4,0,0
127,shift,color,right,1,1,1.2238637,right,0.8738578171875,0.3603947028150604,6.4,0,0
127,shift,shape,right,1,1,1.1919161,right,0.8738578171875,0.3603947028150604,6.4,0,0
127,shift,shape,right,0,1,0.3918082,right,0.8738578171875,0.3603947028150604,6.4,0,0
127,shift,color,left,1,1,0.7598881,left,0.8738578171875,0.3603947028150604,6.4,0,0
127,shift,color,right,0,1,0.9038485,right,0.8738578171875,0.3603947028150604,6.4,0,0
127,shift,color,right,0,1,1.3198053,right,0.8738578171875,0.3603947028150604,6.4,0,0
127,shift,shape,left,1,1,1.0158049,left,0.8738578171875,0.3603947028150604,6.4,0,0
127,shift,color,right,1,1,1.0319083,right,0.8738578171875,0.3603947028150604,6.4,0,0
127,shift,shape,left,1,1,0.56783,left,0.8738578171875,0.3603947028150604,6.4,0,0
127,shift,shape,right,0,1,0.6639032,right,0.8738578171875,0.3603947028150604,6.4,0,0
127,shift,shape,left,0,1,0.9838365,left,0.8738578171875,0.3603947028150604,6.4,0,0
127,shift,color,left,1,1,0.4565124,left,0.8738578171875,0.3603947028150604,6.4,0,0
127,shift,shape,right,1,1,0.4232893,right,0.8738578171875,0.3603947028150604,6.4,0,0
127,shift,color,left,1,1,0.7598416,left,0.8738578171875,0.3603947028150604,6.4,0,0
127,shift,color,right,0,1,0.695814,right,0.8738578171875,0.3603947028150604,6.4,0,0
127,shift,shape,left,1,1,0.9998851,left,0.8738578171875,0.3603947028150604,6.4,0,0
127,shift,shape,left,0,1,0.9198365,left,0.8738578171875,0.3603947028150604,6.4,0,0
127,shift,shape,left,0,1,0.3598477,left,0.8738578171875,0.3603947028150604,6.4,0,0
127,shift,shape,left,0,1,0.391869,left,0.8738578171875,0.3603947028150604,6.4,0,0
127,shift,color,right,1,1,0.9198928,right,0.8738578171875,0.3603947028150604,6.4,0,0
127,shift,shape,left,1,1,0.343839,left,0.8738578171875,0.3603947028150604,6.4,0,0
127,shift,color,right,1,1,0.7918762,right,0.8738578171875,0.3603947028150604,6.4,0,0
127,shift,color,left,0,1,0.4878125,left,0.8738578171875,0.3603947028150604,6.4,0,0
127,shift,shape,right,1,1,1.1598663,right,0.8738578171875,0.3603947028150604,6.4,0,0
127,shift,color,left,1,1,1.0959098,left,0.8738578171875,0.3603947028150604,6.4,0,0
127,shift,color,left,0,1,0.551794,left,0.8738578171875,0.3603947028150604,6.4,0,0
127,shift,shape,right,1,1,0.4878971,right,0.8738578171875,0.3603947028150604,6.4,0,0
127,shift,shape,right,0,1,0.9359153,right,0.8738578171875,0.3603947028150604,6.4,0,0
127,shift,color,left,1,1,1.1277725,left,0.8738578171875,0.3603947028150604,6.4,0,0
127,shift,color,right,0,1,1.0319096,right,0.8738578171875,0.3603947028150604,6.4,0,0
127,shift,color,left,0,1,1.1917966,left,0.8738578171875,0.3603947028150604,6.4,0,0
127,shift,shape,left,1,1,1.559929,left,0.8738578171875,0.3603947028150604,6.4,0,0
127,shift,shape,left,0,1,0.8557904,left,0.8738578171875,0.3603947028150604,6.4,0,0
127,shift,shape,left,0,1,0.3758724,left,0.8738578171875,0.3603947028150604,6.4,0,0
127,shift,color,right,1,1,1.047873,right,0.8738578171875,0.3603947028150604,6.4,0,0
127,shift,shape,right,1,1,1.0318238,right,0.8738578171875,0.3603947028150604,6.4,0,0
127,shift,shape,left,0,1,0.8718518,left,0.8738578171875,0.3603947028150604,6.4,0,0
127,shift,color,right,1,1,1.543899,right,0.8738578171875,0.3603947028150604,6.4,0,0
127,shift,color,right,0,1,1.7365374,right,0.8738578171875,0.3603947028150604,6.4,0,0
127,shift,color,left,0,1,1.3191799,left,0.8738578171875,0.3603947028150604,6.4,0,0
127,shift,color,right,0,1,1.0798754,right,0.8738578171875,0.3603947028150604,6.4,0,0
127,shift,shape,right,1,1,1.2078552,right,0.8738578171875,0.3603947028150604,6.4,0,0
127,shift,shape,right,0,1,1.6077666,right,0.8738578171875,0.3603947028150604,6.4,0,0
131,shape,shape,left,0,1,0.3819538,left,0.38336703,0.04386599159905685,2,0,0
131,shape,shape,left,0,1,0.3438789,left,0.38336703,0.04386599159905685,2,0,0
131,shape,shape,right,0,1,0.3758986,right,0.38336703,0.04386599159905685,2,0,0
131,shape,shape,right,0,1,0.4398591,right,0.38336703,0.04386599159905685,2,0,0
131,shape,shape,right,0,1,0.4238636,right,0.38336703,0.04386599159905685,2,0,0
131,shape,shape,right,0,1,0.407836,right,0.38336703,0.04386599159905685,2,0,0
131,shape,shape,right,0,1,0.4238709,right,0.38336703,0.04386599159905685,2,0,0
131,shape,shape,left,0,1,0.3758281,left,0.38336703,0.04386599159905685,2,0,0
131,shape,shape,right,0,1,0.3917917,right,0.38336703,0.04386599159905685,2,0,0
131,shape,shape,left,0,1,0.4399944,left,0.38336703,0.04386599159905685,2,0,0
131,shape,shape,left,0,1,0.3439958,left,0.38336703,0.04386599159905685,2,0,0
131,shape,shape,left,0,1,0.3756221,left,0.38336703,0.04386599159905685,2,0,0
131,shape,shape,left,0,1,0.3598941,left,0.38336703,0.04386599159905685,2,0,0
131,shape,shape,right,0,1,0.3118946,right,0.38336703,0.04386599159905685,2,0,0
131,shape,shape,right,0,1,0.3757871,right,0.38336703,0.04386599159905685,2,0,0
131,shape,shape,left,0,1,0.4559766,left,0.38336703,0.04386599159905685,2,0,0
131,shape,shape,left,0,1,0.3597928,left,0.38336703,0.04386599159905685,2,0,0
131,shape,shape,right,0,1,0.3278313,right,0.38336703,0.04386599159905685,2,0,0
131,shape,shape,right,0,1,0.4398669,right,0.38336703,0.04386599159905685,2,0,0
131,shape,shape,left,0,1,0.3119042,left,0.38336703,0.04386599159905685,2,0,0
131,color,color,right,0,1,0.6158141,right,0.343862355,0.07716665012136482,2,1,0
131,color,color,right,0,1,0.3758493,right,0.343862355,0.07716665012136482,2,0,0
131,color,color,left,0,1,0.2638447,left,0.343862355,0.07716665012136482,2,0,0
131,color,color,left,0,1,0.2798733,left,0.343862355,0.07716665012136482,2,0,0
131,color,color,left,0,1,0.2799176,left,0.343862355,0.07716665012136482,2,0,0
131,color,color,left,0,1,0.3758459,left,0.343862355,0.07716665012136482,2,0,0
131,color,color,right,0,1,0.2798176,right,0.343862355,0.07716665012136482,2,0,0
131,color,color,left,0,1,0.3598669,left,0.343862355,0.07716665012136482,2,0,0
131,color,color,left,0,1,0.3278577,left,0.343862355,0.07716665012136482,2,0,0
131,color,color,left,0,1,0.3278626,left,0.343862355,0.07716665012136482,2,0,0
131,color,color,left,0,1,0.2958882,left,0.343862355,0.07716665012136482,2,0,0
131,color,color,right,0,1,0.3278012,right,0.343862355,0.07716665012136482,2,0,0
131,color,color,left,0,1,0.2958413,left,0.343862355,0.07716665012136482,2,0,0
131,color,color,right,0,1,0.3439285,right,0.343862355,0.07716665012136482,2,0,0
131,color,color,right,0,1,0.359813,right,0.343862355,0.07716665012136482,2,0,0
131,color,color,right,0,1,0.407907,right,0.343862355,0.07716665012136482,2,0,0
131,color,color,right,0,1,0.3918586,right,0.343862355,0.07716665012136482,2,0,0
131,color,color,left,0,1,0.3118824,left,0.343862355,0.07716665012136482,2,0,0
131,color,color,right,0,1,0.2798231,right,0.343862355,0.07716665012136482,2,0,0
131,color,color,right,0,1,0.3759541,right,0.343862355,0.07716665012136482,2,0,0
131,shift,shape,right,1,1,0.4398015,right,0.4353518671875,0.15978600748827237,6.4,0,0
131,shift,color,left,1,1,0.359799,left,0.4353518671875,0.15978600748827237,6.4,0,0
131,shift,shape,left,1,1,0.3599069,left,0.4353518671875,0.15978600748827237,6.4,0,0
131,shift,color,right,1,1,0.6638625,right,0.4353518671875,0.15978600748827237,6.4,0,0
131,shift,shape,right,1,1,0.5677648,right,0.4353518671875,0.15978600748827237,6.4,0,0
131,shift,color,right,1,1,0.9679332,right,0.4353518671875,0.15978600748827237,6.4,1,0
131,shift,color,left,0,1,0.3439751,left,0.4353518671875,0.15978600748827237,6.4,0,0
131,shift,shape,right,1,1,0.3917792,right,0.4353518671875,0.15978600748827237,6.4,0,0
131,shift,shape,right,0,1,0.4878097,right,0.4353518671875,0.15978600748827237,6.4,0,0
131,shift,shape,right,0,1,0.3598932,right,0.4353518671875,0.15978600748827237,6.4,0,0
131,shift,shape,left,0,1,0.9838654,left,0.4353518671875,0.15978600748827237,6.4,1,0
131,shift,color,left,1,1,0.3757657,left,0.4353518671875,0.15978600748827237,6.4,0,0
131,shift,color,right,0,1,0.3441546,right,0.4353518671875,0.15978600748827237,6.4,0,0
131,shift,color,right,0,1,0.2953284,right,0.4353518671875,0.15978600748827237,6.4,0,0
131,shift,color,right,0,1,0.3758487,right,0.4353518671875,0.15978600748827237,6.4,0,0
131,shift,shape,left,1,1,0.343908,left,0.4353518671875,0.15978600748827237,6.4,0,0
131,shift,shape,left,0,1,0.4078652,left,0.4353518671875,0.15978600748827237,6.4,0,0
131,shift,shape,right,0,1,0.5678213,right,0.4353518671875,0.15978600748827237,6.4,0,0
131,shift,shape,right,0,1,0.343821,right,0.4353518671875,0.15978600748827237,6.4,0,0
131,shift,color,right,1,1,0.3439254,right,0.4353518671875,0.15978600748827237,6.4,0,0
131,shift,color,left,0,1,0.4398289,left,0.4353518671875,0.15978600748827237,6.4,0,0
131,shift,shape,right,1,1,0.5039046,right,0.4353518671875,0.15978600748827237,6.4,0,0
131,shift,color,left,1,1,0.45581,left,0.4353518671875,0.15978600748827237,6.4,0,0
131,shift,shape,left,1,1,0.3119881,left,0.4353518671875,0.15978600748827237,6.4,0,0
131,shift,shape,right,0,1,0.3757709,right,0.4353518671875,0.15978600748827237,6.4,0,0
131,shift,color,right,1,1,0.3598691,right,0.4353518671875,0.15978600748827237,6.4,0,0
131,shift,color,right,0,1,0.34384,right,0.4353518671875,0.15978600748827237,6.4,0,0
131,shift,color,right,0,1,0.3917933,right,0.4353518671875,0.15978600748827237,6.4,0,0
131,shift,shape,right,1,1,0.3758924,right,0.4353518671875,0.15978600748827237,6.4,0,0
131,shift,shape,left,0,1,0.3278383,left,0.4353518671875,0.15978600748827237,6.4,0,0
131,shift,color,left,1,1,0.2958175,left,0.4353518671875,0.15978600748827237,6.4,0,0
131,shift,shape,right,1,1,0.4239878,right,0.4353518671875,0.15978600748827237,6.4,0,0
131,shift,shape,left,0,1,0.3438757,left,0.4353518671875,0.15978600748827237,6.4,0,0
131,shift,color,right,1,1,0.6797683,right,0.4353518671875,0.15978600748827237,6.4,0,0
131,shift,color,left,0,1,0.2958654,left,0.4353518671875,0.15978600748827237,6.4,0,0
131,shift,shape,right,1,1,0.3439084,right,0.4353518671875,0.15978600748827237,6.4,0,0
131,shift,color,left,1,1,0.2958113,left,0.4353518671875,0.15978600748827237,6.4,0,0
131,shift,shape,left,1,1,0.5518168,left,0.4353518671875,0.15978600748827237,6.4,0,0
131,shift,color,right,1,1,0.3438511,right,0.4353518671875,0.15978600748827237,6.4,0,0
131,shift,color,right,0,1,0.3918407,right,0.4353518671875,0.15978600748827237,6.4,0,0
131,shift,shape,right,1,0,0.343906,left,0.4353518671875,0.15978600748827237,6.4,0,0
131,shift,color,left,1,1,0.2318525,left,0.4353518671875,0.15978600748827237,6.4,0,0
131,shift,color,left,0,1,0.3599221,left,0.4353518671875,0.15978600748827237,6.4,0,0
131,shift,shape,left,1,1,0.3917958,left,0.4353518671875,0.15978600748827237,6.4,0,0
131,shift,shape,left,0,1,0.3758709,left,0.4353518671875,0.15978600748827237,6.4,0,0
131,shift,color,left,1,1,0.3757635,left,0.4353518671875,0.15978600748827237,6.4,0,0
131,shift,color,left,0,1,0.5679063,left,0.4353518671875,0.15978600748827237,6.4,0,0
131,shift,color,left,0,1,0.6159148,left,0.4353518671875,0.15978600748827237,6.4,0,0
131,shift,shape,left,1,1,0.3758427,left,0.4353518671875,0.15978600748827237,6.4,0,0
131,shift,shape,left,0,1,0.3598222,left,0.4353518671875,0.15978600748827237,6.4,0,0
131,shift,color,right,1,0,0.4078328,left,0.4353518671875,0.15978600748827237,6.4,0,0
131,shift,color,left,0,1,0.4879204,left,0.4353518671875,0.15978600748827237,6.4,0,0
131,shift,shape,right,1,1,0.9999018,right,0.4353518671875,0.15978600748827237,6.4,1,0
131,shift,color,left,1,1,0.2959384,left,0.4353518671875,0.15978600748827237,6.4,0,0
131,shift,shape,left,1,1,0.7277028,left,0.4353518671875,0.15978600748827237,6.4,0,0
131,shift,shape,left,0,1,0.3599339,left,0.4353518671875,0.15978600748827237,6.4,0,0
131,shift,color,right,1,1,0.4398065,right,0.4353518671875,0.15978600748827237,6.4,0,0
131,shift,shape,left,1,1,0.3917986,left,0.4353518671875,0.15978600748827237,6.4,0,0
131,shift,shape,right,0,1,0.3758775,right,0.4353518671875,0.15978600748827237,6.4,0,0
131,shift,shape,left,0,1,0.3598597,left,0.4353518671875,0.15978600748827237,6.4,0,0
131,shift,color,left,1,1,0.59988,left,0.4353518671875,0.15978600748827237,6.4,0,0
131,shift,color,right,0,1,0.2638384,right,0.4353518671875,0.15978600748827237,6.4,0,0
131,shift,shape,right,1,1,0.5198533,right,0.4353518671875,0.15978600748827237,6.4,0,0
131,shift,color,right,1,1,0.4558712,right,0.4353518671875,0.15978600748827237,6.4,0,0
132,shape,shape,left,0,1,0.3822904,left,0.42657375999999997,0.12734293547273048,2,0,0
132,shape,shape,right,0,1,0.2958079,right,0.42657375999999997,0.12734293547273048,2,0,0
132,shape,shape,left,0,1,0.4878789,left,0.42657375999999997,0.12734293547273048,2,0,0
132,shape,shape,left,0,1,0.3918873,left,0.42657375999999997,0.12734293547273048,2,0,0
132,shape,shape,right,0,1,0.4237737,right,0.42657375999999997,0.12734293547273048,2,0,0
132,shape,shape,left,0,1,0.3283019,left,0.42657375999999997,0.12734293547273048,2,0,0
132,shape,shape,left,0,1,0.455927,left,0.42657375999999997,0.12734293547273048,2,0,0
132,shape,shape,right,0,1,0.4553223,right,0.42657375999999997,0.12734293547273048,2,0,0
132,shape,shape,left,0,1,0.3278998,left,0.42657375999999997,0.12734293547273048,2,0,0
132,shape,shape,right,0,1,0.3919935,right,0.42657375999999997,0.12734293547273048,2,0,0
132,shape,shape,right,0,1,0.9198114,right,0.42657375999999997,0.12734293547273048,2,1,0
132,shape,shape,left,0,1,0.3597797,left,0.42657375999999997,0.12734293547273048,2,0,0
132,shape,shape,right,0,1,0.503815,right,0.42657375999999997,0.12734293547273048,2,0,0
132,shape,shape,right,0,1,0.4398119,right,0.42657375999999997,0.12734293547273048,2,0,0
132,shape,shape,right,0,1,0.4078882,right,0.42657375999999997,0.12734293547273048,2,0,0
132,shape,shape,right,0,1,0.4238726,right,0.42657375999999997,0.12734293547273048,2,0,0
132,shape,shape,right,0,1,0.3757966,right,0.42657375999999997,0.12734293547273048,2,0,0
132,shape,shape,left,0,1,0.3919001,left,0.42657375999999997,0.12734293547273048,2,0,0
132,shape,shape,left,0,1,0.391856,left,0.42657375999999997,0.12734293547273048,2,0,0
132,shape,shape,left,0,1,0.375861,left,0.42657375999999997,0.12734293547273048,2,0,0
132,color,color,right,0,1,0.5358504,right,0.40866227,0.07512529173798227,2,0,0
132,color,color,left,0,1,0.5838373,left,0.40866227,0.07512529173798227,2,0,0
132,color,color,right,0,1,0.3758552,right,0.40866227,0.07512529173798227,2,0,0
132,color,color,right,0,1,0.4238849,right,0.40866227,0.07512529173798227,2,0,0
132,color,color,right,0,1,0.4078592,right,0.40866227,0.07512529173798227,2,0,0
132,color,color,right,0,1,0.4558567,right,0.40866227,0.07512529173798227,2,0,0
132,color,color,left,0,1,0.4878309,left,0.40866227,0.07512529173798227,2,0,0
132,color,color,left,0,1,0.3599446,left,0.40866227,0.07512529173798227,2,0,0
132,color,color,right,0,1,0.2638187,right,0.40866227,0.07512529173798227,2,0,0
132,color,color,left,0,1,0.5038732,left,0.40866227,0.07512529173798227,2,0,0
132,color,color,right,0,1,0.3598693,right,0.40866227,0.07512529173798227,2,0,0
132,color,color,left,0,1,0.4238552,left,0.40866227,0.07512529173798227,2,0,0
132,color,color,right,0,1,0.4398083,right,0.40866227,0.07512529173798227,2,0,0
132,color,color,left,0,1,0.3759446,left,0.40866227,0.07512529173798227,2,0,0
132,color,color,right,0,1,0.359775,right,0.40866227,0.07512529173798227,2,0,0
132,color,color,right,0,1,0.3599235,right,0.40866227,0.07512529173798227,2,0,0
132,color,color,left,0,1,0.3438816,left,0.40866227,0.07512529173798227,2,0,0
132,color,color,left,0,1,0.3598758,left,0.40866227,0.07512529173798227,2,0,0
132,color,color,left,0,1,0.3758536,left,0.40866227,0.07512529173798227,2,0,0
132,color,color,left,0,1,0.3758474,left,0.40866227,0.07512529173798227,2,0,0
132,shift,shape,left,1,0,0.4398893,right,0.5056080765625,0.17690804842116156,6.4,0,0
132,shift,color,right,1,1,0.5198042,right,0.5056080765625,0.17690804842116156,6.4,0,0
132,shift,color,right,0,1,0.6798348,right,0.5056080765625,0.17690804842116156,6.4,0,0
132,shift,color,left,0,1,0.583819,left,0.5056080765625,0.17690804842116156,6.4,0,0
132,shift,shape,left,1,1,0.4080432,left,0.5056080765625,0.17690804842116156,6.4,0,0
132,shift,shape,right,0,1,0.3597192,right,0.5056080765625,0.17690804842116156,6.4,0,0
132,shift,shape,left,0,1,0.4878628,left,0.5056080765625,0.17690804842116156,6.4,0,0
132,shift,shape,left,0,0,0.5678138,right,0.5056080765625,0.17690804842116156,6.4,0,0
132,shift,color,left,1,1,1.3519256,left,0.5056080765625,0.17690804842116156,6.4,1,0
132,shift,shape,left,1,0,0.6158181,right,0.5056080765625,0.17690804842116156,6.4,0,0
132,shift,color,right,1,1,0.6799242,right,0.5056080765625,0.17690804842116156,6.4,0,0
132,shift,shape,right,1,1,0.4718241,right,0.5056080765625,0.17690804842116156,6.4,0,0
132,shift,color,left,1,0,0.5677739,right,0.5056080765625,0.17690804842116156,6.4,0,0
132,shift,shape,right,1,1,1.1759503,right,0.5056080765625,0.17690804842116156,6.4,1,0
132,shift,shape,left,0,1,0.4398037,left,0.5056080765625,0.17690804842116156,6.4,0,0
132,shift,color,right,1,1,0.4399039,right,0.5056080765625,0.17690804842116156,6.4,0,0
132,shift,color,right,0,1,0.4557695,right,0.5056080765625,0.17690804842116156,6.4,0,0
132,shift,color,right,0,1,0.7759098,right,0.5056080765625,0.17690804842116156,6.4,0,0
132,shift,shape,right,1,1,0.7119129,right,0.5056080765625,0.17690804842116156,6.4,0,0
132,shift,shape,left,0,1,0.375782,left,0.5056080765625,0.17690804842116156,6.4,0,0
132,shift,color,right,1,1,0.4398818,right,0.5056080765625,0.17690804842116156,6.4,0,0
132,shift,shape,right,1,1,0.487852,right,0.5056080765625,0.17690804842116156,6.4,0,0
132,shift,color,left,1,1,0.471945,left,0.5056080765625,0.17690804842116156,6.4,0,0
132,shift,color,right,0,1,0.4077991,right,0.5056080765625,0.17690804842116156,6.4,0,0
132,shift,shape,left,1,1,0.4558684,left,0.5056080765625,0.17690804842116156,6.4,0,0
132,shift,shape,left,0,1,0.4878188,left,0.5056080765625,0.17690804842116156,6.4,0,0
132,shift,shape,left,0,1,0.4239165,left,0.5056080765625,0.17690804842116156,6.4,0,0
132,shift,shape,left,0,1,0.439763,left,0.5056080765625,0.17690804842116156,6.4,0,0
132,shift,color,left,1,1,0.4239409,left,0.5056080765625,0.17690804842116156,6.4,0,0
132,shift,color,left,0,1,0.7118519,left,0.5056080765625,0.17690804842116156,6.4,0,0
132,shift,color,left,0,1,0.4237846,left,0.5056080765625,0.17690804842116156,6.4,0,0
132,shift,color,right,0,1,0.4559522,right,0.5056080765625,0.17690804842116156,6.4,0,0
132,shift,shape,right,1,1,0.3918752,right,0.5056080765625,0.17690804842116156,6.4,0,0
132,shift,shape,right,0,1,0.4718448,right,0.5056080765625,0.17690804842116156,6.4,0,0
132,shift,color,right,1,1,0.4078122,right,0.5056080765625,0.17690804842116156,6.4,0,0
132,shift,shape,right,1,1,0.4398464,right,0.5056080765625,0.17690804842116156,6.4,0,0
132,shift,color,left,1,1,0.4879442,left,0.5056080765625,0.17690804842116156,6.4,0,0
132,shift,color,right,0,1,0.4237314,right,0.5056080765625,0.17690804842116156,6.4,0,0
132,shift,color,left,0,1,0.5679502,left,0.5056080765625,0.17690804842116156,6.4,0,0
132,shift,color,right,0,1,0.4558661,right,0.5056080765625,0.17690804842116156,6.4,0,0
132,shift,shape,right,1,1,0.4398442,right,0.5056080765625,0.17690804842116156,6.4,0,0
132,shift,color,right,1,1,0.4558815,right,0.5056080765625,0.17690804842116156,6.4,0,0
132,shift,shape,right,1,1,0.5198902,right,0.5056080765625,0.17690804842116156,6.4,0,0
132,shift,shape,left,0,1,0.4557391,left,0.5056080765625,0.17690804842116156,6.4,0,0
132,shift,color,left,1,1,0.6159702,left,0.5056080765625,0.17690804842116156,6.4,0,0
132,shift,shape,right,1,1,0.4078331,right,0.5056080765625,0.17690804842116156,6.4,0,0
132,shift,shape,right,0,1,0.4557968,right,0.5056080765625,0.17690804842116156,6.4,0,0
132,shift,color,left,1,1,0.8558946,left,0.5056080765625,0.17690804842116156,6.4,0,0
132,shift,shape,right,1,1,0.5678549,right,0.5056080765625,0.17690804842116156,6.4,0,0
132,shift,color,right,1,1,0.35992,right,0.5056080765625,0.17690804842116156,6.4,0,0
132,shift,color,left,0,1,0.4398122,left,0.5056080765625,0.17690804842116156,6.4,0,0
132,shift,shape,left,1,1,0.3599222,left,0.5056080765625,0.17690804842116156,6.4,0,0
132,shift,color,left,1,1,0.3597816,left,0.5056080765625,0.17690804842116156,6.4,0,0
132,shift,shape,left,1,1,0.5678524,left,0.5056080765625,0.17690804842116156,6.4,0,0
132,shift,color,right,1,1,0.4718618,right,0.5056080765625,0.17690804842116156,6.4,0,0
132,shift,shape,right,1,1,0.4398464,right,0.5056080765625,0.17690804842116156,6.4,0,0
132,shift,color,left,1,1,0.6318905,left,0.5056080765625,0.17690804842116156,6.4,0,0
132,shift,shape,left,1,1,0.4398781,left,0.5056080765625,0.17690804842116156,6.4,0,0
132,shift,shape,right,0,1,0.3438664,right,0.5056080765625,0.17690804842116156,6.4,0,0
132,shift,shape,left,0,1,0.4238412,left,0.5056080765625,0.17690804842116156,6.4,0,0
132,shift,shape,right,0,1,0.4078962,right,0.5056080765625,0.17690804842116156,6.4,0,0
132,shift,color,left,1,1,0.3598114,left,0.5056080765625,0.17690804842116156,6.4,0,0
132,shift,color,right,0,1,0.2798119,right,0.5056080765625,0.17690804842116156,6.4,0,0
132,shift,color,left,0,1,0.311891,left,0.5056080765625,0.17690804842116156,6.4,0,0
134,color,color,left,0,1,0.5739719,left,0.592961635,0.11037377864583253,2,0,0
134,color,color,right,0,1,0.9198834,right,0.592961635,0.11037377864583253,2,0,0
134,color,color,left,0,1,0.5357991,left,0.592961635,0.11037377864583253,2,0,0
134,color,color,right,0,1,0.5038726,right,0.592961635,0.11037377864583253,2,0,0
134,color,color,left,0,1,0.5038821,left,0.592961635,0.11037377864583253,2,0,0
134,color,color,right,0,1,0.5197714,right,0.592961635,0.11037377864583253,2,0,0
134,color,color,left,0,1,0.6479699,left,0.592961635,0.11037377864583253,2,0,0
134,color,color,right,0,1,0.5518376,right,0.592961635,0.11037377864583253,2,0,0
134,color,color,right,0,1,0.5518005,right,0.592961635,0.11037377864583253,2,0,0
134,color,color,left,0,1,0.7919176,left,0.592961635,0.11037377864583253,2,0,0
134,color,color,right,0,1,0.6958064,right,0.592961635,0.11037377864583253,2,0,0
134,color,color,left,0,1,0.5678373,left,0.592961635,0.11037377864583253,2,0,0
134,color,color,left,0,1,0.5839151,left,0.592961635,0.11037377864583253,2,0,0
134,color,color,left,0,1,0.5358268,left,0.592961635,0.11037377864583253,2,0,0
134,color,color,right,0,1,0.520097,right,0.592961635,0.11037377864583253,2,0,0
134,color,color,right,0,1,0.5196607,right,0.592961635,0.11037377864583253,2,0,0
134,color,color,right,0,1,0.487834,right,0.592961635,0.11037377864583253,2,0,0
134,color,color,left,0,1,0.6958884,left,0.592961635,0.11037377864583253,2,0,0
134,color,color,right,0,1,0.5198576,right,0.592961635,0.11037377864583253,2,0,0
134,color,color,left,0,1,0.6318033,left,0.592961635,0.11037377864583253,2,0,0
134,shape,shape,left,0,1,0.6799196,left,0.63985786,0.19803770098747783,2,0,0
134,shape,shape,right,0,1,0.6478209,right,0.63985786,0.19803770098747783,2,0,0
134,shape,shape,left,0,1,0.679831,left,0.63985786,0.19803770098747783,2,0,0
134,shape,shape,right,0,1,0.6478802,right,0.63985786,0.19803770098747783,2,0,0
134,shape,shape,right,0,1,0.663872,right,0.63985786,0.19803770098747783,2,0,0
134,shape,shape,right,0,1,0.5518673,right,0.63985786,0.19803770098747783,2,0,0
134,shape,shape,right,0,1,0.5838575,right,0.63985786,0.19803770098747783,2,0,0
134,shape,shape,right,0,1,0.4397959,right,0.63985786,0.19803770098747783,2,0,0
134,shape,shape,left,0,1,0.4398924,left,0.63985786,0.19803770098747783,2,0,0
134,shape,shape,right,0,1,0.6159024,right,0.63985786,0.19803770098747783,2,0,0
134,shape,shape,left,0,1,0.6478275,left,0.63985786,0.19803770098747783,2,0,0
134,shape,shape,left,0,0,0.8078495,right,0.63985786,0.19803770098747783,2,0,0
134,shape,shape,left,0,1,1.3518229,left,0.63985786,0.19803770098747783,2,1,0
134,shape,shape,left,0,1,0.5998301,left,0.63985786,0.19803770098747783,2,0,0
134,shape,shape,left,0,1,0.439909,left,0.63985786,0.19803770098747783,2,0,0
134,shape,shape,left,0,1,0.647824,left,0.63985786,0.19803770098747783,2,0,0
134,shape,shape,right,0,1,0.791884,right,0.63985786,0.19803770098747783,2,0,0
134,shape,shape,right,0,1,0.4718815,right,0.63985786,0.19803770098747783,2,0,0
134,shape,shape,left,0,1,0.5038445,left,0.63985786,0.19803770098747783,2,0,0
134,shape,shape,right,0,1,0.583845,right,0.63985786,0.19803770098747783,2,0,0
134,shift,shape,right,0,1,0.5518588,right,0.96510165625,0.37096721981956066,6.4,0,0
134,shift,shape,right,0,1,0.5999292,right,0.96510165625,0.37096721981956066,6.4,0,0
134,shift,shape,left,0,1,0.4877706,left,0.96510165625,0.37096721981956066,6.4,0,0
134,shift,color,right,1,1,0.631856,right,0.96510165625,0.37096721981956066,6.4,0,0
134,shift,shape,right,1,1,0.7438672,right,0.96510165625,0.37096721981956066,6.4,0,0
134,shift,shape,right,0,1,0.5838416,right,0.96510165625,0.37096721981956066,6.4,0,0
134,shift,shape,right,0,1,0.5678981,right,0.96510165625,0.37096721981956066,6.4,0,0
134,shift,color,left,1,1,0.9199099,left,0.96510165625,0.37096721981956066,6.4,0,0
134,shift,color,right,0,1,0.6158696,right,0.96510165625,0.37096721981956066,6.4,0,0
134,shift,color,right,0,1,0.6477505,right,0.96510165625,0.37096721981956066,6.4,0,0
134,shift,color,right,0,1,0.5358463,right,0.96510165625,0.37096721981956066,6.4,0,0
134,shift,shape,left,1,1,0.6797419,left,0.96510165625,0.37096721981956066,6.4,0,0
134,shift,shape,right,0,1,1.0638825,right,0.96510165625,0.37096721981956066,6.4,0,0
134,shift,color,right,1,0,0.9678607,left,0.96510165625,0.37096721981956066,6.4,0,0
134,shift,shape,left,1,1,1.127851,left,0.96510165625,0.37096721981956066,6.4,0,0
134,shift,shape,right,0,1,1.0318286,right,0.96510165625,0.37096721981956066,6.4,0,0
134,shift,color,left,1,1,0.8878605,left,0.96510165625,0.37096721981956066,6.4,0,0
134,shift,shape,left,1,1,1.5919068,left,0.96510165625,0.37096721981956066,6.4,0,0
134,shift,color,left,1,1,1.3357893,left,0.96510165625,0.37096721981956066,6.4,0,0
134,shift,shape,right,1,1,1.5279117,right,0.96510165625,0.37096721981956066,6.4,0,0
134,shift,shape,left,0,1,1.2398567,left,0.96510165625,0.37096721981956066,6.4,0,0
134,shift,color,right,1,1,0.96782,right,0.96510165625,0.37096721981956066,6.4,0,0
134,shift,color,left,0,1,0.5998709,left,0.96510165625,0.37096721981956066,6.4,0,0
134,shift,color,right,0,1,0.5518496,right,0.96510165625,0.37096721981956066,6.4,0,0
134,shift,shape,left,1,1,0.6638485,left,0.96510165625,0.37096721981956066,6.4,0,0
134,shift,color,left,1,1,0.7278537,left,0.96510165625,0.37096721981956066,6.4,0,0
134,shift,shape,left,1,1,1.1278556,left,0.96510165625,0.37096721981956066,6.4,0,0
134,shift,color,right,1,1,1.7518378,right,0.96510165625,0.37096721981956066,6.4,0,0
134,shift,shape,right,1,1,1.4478771,right,0.96510165625,0.37096721981956066,6.4,0,0
134,shift,color,right,1,1,0.6158658,right,0.96510165625,0.37096721981956066,6.4,0,0
134,shift,color,left,0,1,0.7597585,left,0.96510165625,0.37096721981956066,6.4,0,0
134,shift,color,left,0,1,0.7279556,left,0.96510165625,0.37096721981956066,6.4,0,0
134,shift,color,right,0,1,0.5038532,right,0.96510165625,0.37096721981956066,6.4,0,0
