subject_id,trial_condition,trial_cue,trial_corr_resp,trial_shift,resp_corr,resp_rt,resp_value,mean_rt,sd_rt,exclude_thresh,exclude_trial,exclude_part
100,shape,shape,right,0,1,0.494351482664,right,0.53654693476525,0.1405779191710239,2,0,0
100,shape,shape,left,0,1,0.703893477719,left,0.53654693476525,0.1405779191710239,2,0,0
100,shape,shape,right,0,1,0.375927923489,right,0.53654693476525,0.1405779191710239,2,0,0
100,shape,shape,left,0,1,0.471647742126,left,0.53654693476525,0.1405779191710239,2,0,0
100,shape,shape,left,0,1,0.543772629074,left,0.53654693476525,0.1405779191710239,2,0,0
100,shape,shape,right,0,1,0.399859680962,right,0.53654693476525,0.1405779191710239,2,0,0
100,shape,shape,left,0,1,0.471819309943,left,0.53654693476525,0.1405779191710239,2,0,0
100,shape,shape,right,0,1,0.527795488758,right,0.53654693476525,0.1405779191710239,2,0,0
100,shape,shape,left,0,1,0.527898549636,left,0.53654693476525,0.1405779191710239,2,0,0
100,shape,shape,right,0,1,0.495891987392,right,0.53654693476525,0.1405779191710239,2,0,0
100,shape,shape,right,0,1,0.599659869056,right,0.53654693476525,0.1405779191710239,2,0,0
100,shape,shape,left,0,1,0.391860894857,left,0.53654693476525,0.1405779191710239,2,0,0
100,shape,shape,left,0,1,0.607905340236,left,0.53654693476525,0.1405779191710239,2,0,0
100,shape,shape,left,0,1,0.511621541226,left,0.53654693476525,0.1405779191710239,2,0,0
100,shape,shape,left,0,1,0.463873406387,left,0.53654693476525,0.1405779191710239,2,0,0
100,shape,shape,right,0,1,0.375779191318,right,0.53654693476525,0.1405779191710239,2,0,0
100,shape,shape,left,0,1,0.479920555988,left,0.53654693476525,0.1405779191710239,2,0,0
100,shape,shape,right,0,1,0.975791811017,right,0.53654693476525,0.1405779191710239,2,1,0
100,shape,shape,right,0,1,0.607896326165,right,0.53654693476525,0.1405779191710239,2,0,0
100,shape,shape,right,0,1,0.703771487292,right,0.53654693476525,0.1405779191710239,2,0,0
100,color,color,right,0,0,0.655796798803,left,0.790630068537,0.3832587092454292,2,0,0
100,color,color,right,0,0,0.791916481628,left,0.790630068537,0.3832587092454292,2,0,0
100,color,color,right,0,0,0.647669411952,left,0.790630068537,0.3832587092454292,2,0,0
100,color,color,left,0,0,0.807862974103,right,0.790630068537,0.3832587092454292,2,0,0
100,color,color,right,0,0,1.86387550967,left,0.790630068537,0.3832587092454292,2,0,0
100,color,color,right,0,0,0.775777989442,left,0.790630068537,0.3832587092454292,2,0,0
100,color,color,left,0,0,0.791870209397,right,0.790630068537,0.3832587092454292,2,0,0
100,color,color,right,0,0,0.919860402088,left,0.790630068537,0.3832587092454292,2,0,0
100,color,color,left,0,0,0.567843503709,right,0.790630068537,0.3832587092454292,2,0,0
100,color,color,left,0,1,1.7277960897,left,0.790630068537,0.3832587092454292,2,0,0
100,color,color,left,0,1,1.09583549921,left,0.790630068537,0.3832587092454292,2,0,0
100,color,color,right,0,1,0.607800777013,right,0.790630068537,0.3832587092454292,2,0,0
100,color,color,left,0,1,0.671824417916,left,0.790630068537,0.3832587092454292,2,0,0
100,color,color,left,0,1,0.679809382446,left,0.790630068537,0.3832587092454292,2,0,0
100,color,color,left,0,1,0.615807976251,left,0.790630068537,0.3832587092454292,2,0,0
100,color,color,right,0,1,0.415962116864,right,0.790630068537,0.3832587092454292,2,0,0
100,color,color,left,0,1,0.567765081292,left,0.790630068537,0.3832587092454292,2,0,0
100,color,color,right,0,1,0.335839345218,right,0.790630068537,0.3832587092454292,2,0,0
100,color,color,right,0,1,0.519835162689,right,0.790630068537,0.3832587092454292,2,0,0
100,color,color,left,0,1,0.751852241349,left,0.790630068537,0.3832587092454292,2,0,0
100,shift,color,right,0,1,0.927818324404,right,0.716948251533,0.24971019757447607,6.4,0,0
100,shift,shape,right,1,0,0.503855618621,left,0.716948251533,0.24971019757447607,6.4,0,0
100,shift,shape,left,0,1,1.17579992368,left,0.716948251533,0.24971019757447607,6.4,0,0
100,shift,color,right,1,1,0.623863250534,right,0.716948251533,0.24971019757447607,6.4,0,0
100,shift,color,right,0,1,0.487776318834,right,0.716948251533,0.24971019757447607,6.4,0,0
100,shift,shape,left,1,1,0.511891662886,left,0.716948251533,0.24971019757447607,6.4,0,0
100,shift,shape,left,0,1,0.479818997455,left,0.716948251533,0.24971019757447607,6.4,0,0
100,shift,color,left,1,1,0.823783325771,left,0.716948251533,0.24971019757447607,6.4,0,0
100,shift,shape,right,1,1,1.17587474047,right,0.716948251533,0.24971019757447607,6.4,0,0
100,shift,color,right,1,1,1.25579409458,right,0.716948251533,0.24971019757447607,6.4,0,0
100,shift,color,left,0,1,0.575846496381,left,0.716948251533,0.24971019757447607,6.4,0,0
100,shift,shape,left,1,1,0.671781150376,left,0.716948251533,0.24971019757447607,6.4,0,0
100,shift,shape,right,0,1,0.407867781607,right,0.716948251533,0.24971019757447607,6.4,0,0
100,shift,color,left,1,1,0.511744132591,left,0.716948251533,0.24971019757447607,6.4,0,0
100,shift,color,left,0,1,0.671823516509,left,0.716948251533,0.24971019757447607,6.4,0,0
100,shift,color,right,0,1,0.519846580512,right,0.716948251533,0.24971019757447607,6.4,0,0
100,shift,color,left,0,1,0.471810596341,left,0.716948251533,0.24971019757447607,6.4,0,0
100,shift,shape,left,1,1,0.479846941075,left,0.716948251533,0.24971019757447607,6.4,0,0
100,shift,color,left,1,0,0.943912647643,right,0.716948251533,0.24971019757447607,6.4,0,0
100,shift,shape,left,1,1,1.28762187775,left,0.716948251533,0.24971019757447607,6.4,0,0
100,shift,shape,right,0,1,0.919800007812,right,0.716948251533,0.24971019757447607,6.4,0,0
100,shift,shape,left,0,1,1.19989633818,left,0.716948251533,0.24971019757447607,6.4,0,0
100,shift,shape,left,0,1,1.06382202618,left,0.716948251533,0.24971019757447607,6.4,0,0
100,shift,color,right,1,1,0.855749625165,right,0.716948251533,0.24971019757447607,6.4,0,0
100,shift,color,right,0,1,0.639895376683,right,0.716948251533,0.24971019757447607,6.4,0,0
100,shift,shape,right,1,1,0.647841580708,right,0.716948251533,0.24971019757447607,6.4,0,0
100,shift,shape,right,0,1,0.743811990517,right,0.716948251533,0.24971019757447607,6.4,0,0
100,shift,color,left,1,1,0.495775104939,left,0.716948251533,0.24971019757447607,6.4,0,0
100,shift,shape,right,1,1,0.863859885281,right,0.716948251533,0.24971019757447607,6.4,0,0
100,shift,shape,right,0,1,0.663848166989,right,0.716948251533,0.24971019757447607,6.4,0,0
100,shift,shape,right,0,1,0.703792219655,right,0.716948251533,0.24971019757447607,6.4,0,0
100,shift,shape,left,0,1,0.672013713407,left,0.716948251533,0.24971019757447607,6.4,0,0
100,shift,color,right,1,1,0.679698208904,right,0.716948251533,0.24971019757447607,6.4,0,0
100,shift,color,right,0,1,0.87978955149,right,0.716948251533,0.24971019757447607,6.4,0,0
100,shift,shape,right,1,0,0.615810079534,left,0.716948251533,0.24971019757447607,6.4,0,0
100,shift,color,right,1,1,0.455826244768,right,0.716948251533,0.24971019757447607,6.4,0,0
100,shift,shape,right,1,1,0.639808240664,right,0.716948251533,0.24971019757447607,6.4,0,0
100,shift,color,left,1,1,0.591837157803,left,0.716948251533,0.24971019757447607,6.4,0,0
100,shift,color,right,0,1,0.831871351179,right,0.716948251533,0.24971019757447607,6.4,0,0
100,shift,shape,left,1,1,0.751776222684,left,0.716948251533,0.24971019757447607,6.4,0,0
100,shift,shape,right,0,1,0.66389443922,right,0.716948251533,0.24971019757447607,6.4,0,0
100,shift,shape,left,0,1,1.18383987404,left,0.716948251533,0.24971019757447607,6.4,0,0
100,shift,shape,right,0,0,0.791766247112,left,0.716948251533,0.24971019757447607,6.4,0,0
100,shift,color,right,1,1,0.615922755421,right,0.716948251533,0.24971019757447607,6.4,0,0
100,shift,color,left,0,1,0.575767172556,left,0.716948251533,0.24971019757447607,6.4,0,0
100,shift,color,right,0,1,0.607889715846,right,0.716948251533,0.24971019757447607,6.4,0,0
100,shift,color,left,0,1,0.831695877264,left,0.716948251533,0.24971019757447607,6.4,0,0
100,shift,shape,right,1,1,0.639925123117,right,0.716948251533,0.24971019757447607,6.4,0,0
100,shift,shape,left,0,1,0.367712198742,left,0.716948251533,0.24971019757447607,6.4,0,0
100,shift,color,right,1,1,0.751986551006,right,0.716948251533,0.24971019757447607,6.4,0,0
100,shift,color,left,0,1,0.647678726492,left,0.716948251533,0.24971019757447607,6.4,0,0
100,shift,color,right,0,1,0.383792399936,right,0.716948251533,0.24971019757447607,6.4,0,0
100,shift,shape,left,1,1,0.431830186922,left,0.716948251533,0.24971019757447607,6.4,0,0
100,shift,color,left,1,1,0.439832278186,left,0.716948251533,0.24971019757447607,6.4,0,0
100,shift,shape,right,1,1,0.343899126537,right,0.716948251533,0.24971019757447607,6.4,0,0
100,shift,color,left,1,1,0.759822783365,left,0.716948251533,0.24971019757447607,6.4,0,0
100,shift,color,right,0,1,0.631851219754,right,0.716948251533,0.24971019757447607,6.4,0,0
100,shift,color,left,0,1,0.767806846487,left,0.716948251533,0.24971019757447607,6.4,0,0
100,shift,shape,left,1,1,0.463812110705,left,0.716948251533,0.24971019757447607,6.4,0,0
100,shift,color,left,1,1,0.807852758155,left,0.716948251533,0.24971019757447607,6.4,0,0
100,shift,shape,left,1,0,0.727789479377,right,0.716948251533,0.24971019757447607,6.4,0,0
100,shift,color,left,1,1,1.28778773666,left,0.716948251533,0.24971019757447607,6.4,0,0
100,shift,shape,left,1,1,1.27988960768,left,0.716948251533,0.24971019757447607,6.4,0,0
100,shift,shape,right,0,1,0.45574181297,right,0.716948251533,0.24971019757447607,6.4,0,0
101,shape,shape,left,0,0,0.530858470072,right,0.6039818005906,0.2907960819744457,2,0,0
101,shape,shape,left,0,1,1.29581867295,left,0.6039818005906,0.2907960819744457,2,0,0
101,shape,shape,left,0,1,0.591867805645,left,0.6039818005906,0.2907960819744457,2,0,0
101,shape,shape,left,0,1,0.535861579926,left,0.6039818005906,0.2907960819744457,2,0,0
101,shape,shape,left,0,1,0.479807880101,left,0.6039818005906,0.2907960819744457,2,0,0
101,shape,shape,left,0,1,0.463797087253,left,0.6039818005906,0.2907960819744457,2,0,0
101,shape,shape,right,0,1,1.56785732528,right,0.6039818005906,0.2907960819744457,2,1,0
101,shape,shape,right,0,1,0.535869392121,right,0.6039818005906,0.2907960819744457,2,0,0
101,shape,shape,right,0,1,0.511768771052,right,0.6039818005906,0.2907960819744457,2,0,0
101,shape,shape,right,0,1,0.543847145394,right,0.6039818005906,0.2907960819744457,2,0,0
101,shape,shape,left,0,1,0.511816245159,left,0.6039818005906,0.2907960819744457,2,0,0
101,shape,shape,left,0,1,0.455849380884,left,0.6039818005906,0.2907960819744457,2,0,0
101,shape,shape,right,0,1,0.51982554768,right,0.6039818005906,0.2907960819744457,2,0,0
101,shape,shape,left,0,1,0.423828997064,left,0.6039818005906,0.2907960819744457,2,0,0
101,shape,shape,right,0,1,0.5358074955,right,0.6039818005906,0.2907960819744457,2,0,0
101,shape,shape,right,0,1,0.527829441759,right,0.6039818005906,0.2907960819744457,2,0,0
101,shape,shape,right,0,1,0.447804322547,right,0.6039818005906,0.2907960819744457,2,0,0
101,shape,shape,right,0,1,0.519950843266,right,0.6039818005906,0.2907960819744457,2,0,0
101,shape,shape,right,0,1,0.447834369451,right,0.6039818005906,0.2907960819744457,2,0,0
101,shape,shape,left,0,1,0.631735238708,left,0.6039818005906,0.2907960819744457,2,0,0
101,color,color,left,0,0,0.551852241349,right,0.5398349523607,0.17401878152362835,2,0,0
101,color,color,left,0,0,0.807817903748,right,0.5398349523607,0.17401878152362835,2,0,0
101,color,color,right,0,0,0.479858959836,left,0.5398349523607,0.17401878152362835,2,0,0
101,color,color,right,0,0,0.439769480159,left,0.5398349523607,0.17401878152362835,2,0,0
101,color,color,left,0,1,0.727827638944,left,0.5398349523607,0.17401878152362835,2,0,0
101,color,color,right,0,1,0.743937887042,right,0.5398349523607,0.17401878152362835,2,0,0
101,color,color,left,0,1,0.655802507715,left,0.5398349523607,0.17401878152362835,2,0,0
101,color,color,right,0,1,0.487855342189,right,0.5398349523607,0.17401878152362835,2,0,0
101,color,color,left,0,1,0.439827771151,left,0.5398349523607,0.17401878152362835,2,0,0
101,color,color,right,0,1,0.48778383056,right,0.5398349523607,0.17401878152362835,2,0,0
101,color,color,right,0,1,0.7758870597,right,0.5398349523607,0.17401878152362835,2,0,0
101,color,color,right,0,1,0.383764456316,right,0.5398349523607,0.17401878152362835,2,0,0
101,color,color,left,0,1,0.479939786006,left,0.5398349523607,0.17401878152362835,2,0,0
101,color,color,left,0,1,0.407735875702,left,0.5398349523607,0.17401878152362835,2,0,0
101,color,color,left,0,1,0.695855630639,left,0.5398349523607,0.17401878152362835,2,0,0
101,color,color,right,0,1,0.343835727571,right,0.5398349523607,0.17401878152362835,2,0,0
101,color,color,right,0,1,0.359872060286,right,0.5398349523607,0.17401878152362835,2,0,0
101,color,color,left,0,1,0.855805211936,left,0.5398349523607,0.17401878152362835,2,0,0
101,color,color,right,0,1,0.287834609826,right,0.5398349523607,0.17401878152362835,2,0,0
101,color,color,left,0,1,0.383835066539,left,0.5398349523607,0.17401878152362835,2,0,0
101,shift,color,right,0,1,0.359865149498,right,0.7649575784674532,0.32659024944576476,6.4,0,0
101,shift,color,right,0,1,0.319802712034,right,0.7649575784674532,0.32659024944576476,6.4,0,0
101,shift,color,left,0,1,0.423841917233,left,0.7649575784674532,0.32659024944576476,6.4,0,0
101,shift,shape,right,1,1,0.471834032925,right,0.7649575784674532,0.32659024944576476,6.4,0,0
101,shift,color,right,1,1,0.63980313269,right,0.7649575784674532,0.32659024944576476,6.4,0,0
101,shift,shape,right,1,1,0.495824982798,right,0.7649575784674532,0.32659024944576476,6.4,0,0
101,shift,shape,right,0,1,0.455896254053,right,0.7649575784674532,0.32659024944576476,6.4,0,0
101,shift,color,right,1,1,0.591791786979,right,0.7649575784674532,0.32659024944576476,6.4,0,0
101,shift,shape,right,1,1,0.471849957784,right,0.7649575784674532,0.32659024944576476,6.4,0,0
101,shift,color,left,1,0,0.463908861733,right,0.7649575784674532,0.32659024944576476,6.4,0,0
101,shift,color,left,0,1,0.559767797532,left,0.7649575784674532,0.32659024944576476,6.4,0,0
101,shift,shape,left,1,0,0.503833083443,right,0.7649575784674532,0.32659024944576476,6.4,0,0
101,shift,color,right,1,1,0.623871363198,right,0.7649575784674532,0.32659024944576476,6.4,0,0
101,shift,color,left,0,1,0.783811629954,left,0.7649575784674532,0.32659024944576476,6.4,0,0
101,shift,color,right,0,1,0.663852373555,right,0.7649575784674532,0.32659024944576476,6.4,0,0
101,shift,shape,right,1,1,0.415796257959,right,0.7649575784674532,0.32659024944576476,6.4,0,0
101,shift,color,right,1,1,0.551909330465,right,0.7649575784674532,0.32659024944576476,6.4,0,0
101,shift,color,left,0,1,0.43179953908,left,0.7649575784674532,0.32659024944576476,6.4,0,0
101,shift,shape,left,1,1,0.639892672462,left,0.7649575784674532,0.32659024944576476,6.4,0,0
101,shift,shape,right,0,1,0.495729433646,right,0.7649575784674532,0.32659024944576476,6.4,0,0
101,shift,shape,right,0,1,0.407821509376,right,0.7649575784674532,0.32659024944576476,6.4,0,0
101,shift,shape,left,0,1,0.479816593703,left,0.7649575784674532,0.32659024944576476,6.4,0,0
101,shift,color,left,1,1,0.495860738613,left,0.7649575784674532,0.32659024944576476,6.4,0,0
101,shift,color,right,0,1,0.57587173578,right,0.7649575784674532,0.32659024944576476,6.4,0,0
101,shift,shape,left,1,1,0.511798217017,left,0.7649575784674532,0.32659024944576476,6.4,0,0
101,shift,color,right,1,1,0.855813625069,right,0.7649575784674532,0.32659024944576476,6.4,0,0
101,shift,shape,right,1,1,0.767805644611,right,0.7649575784674532,0.32659024944576476,6.4,0,0
101,shift,shape,right,0,1,0.471872793431,right,0.7649575784674532,0.32659024944576476,6.4,0,0
101,shift,color,left,1,0,0.711810836716,right,0.7649575784674532,0.32659024944576476,6.4,0,0
101,shift,shape,right,1,1,1.24784007836,right,0.7649575784674532,0.32659024944576476,6.4,0,0
101,shift,shape,right,0,1,1.0478707262,right,0.7649575784674532,0.32659024944576476,6.4,0,0
101,shift,shape,right,0,1,0.527806305643,right,0.7649575784674532,0.32659024944576476,6.4,0,0
101,shift,color,right,1,1,1.41583652081,right,0.7649575784674532,0.32659024944576476,6.4,0,0
101,shift,color,right,0,1,0.8638538759,right,0.7649575784674532,0.32659024944576476,6.4,0,0
101,shift,shape,left,1,0,0.703873346294,right,0.7649575784674532,0.32659024944576476,6.4,0,0
101,shift,color,left,1,1,1.28777541743,left,0.7649575784674532,0.32659024944576476,6.4,0,0
101,shift,color,left,0,1,0.775821557451,left,0.7649575784674532,0.32659024944576476,6.4,0,0
101,shift,color,left,0,1,0.807837133766,left,0.7649575784674532,0.32659024944576476,6.4,0,0
101,shift,shape,left,1,0,1.07982650918,right,0.7649575784674532,0.32659024944576476,6.4,0,0
101,shift,shape,left,0,1,1.16783178542,left,0.7649575784674532,0.32659024944576476,6.4,0,0
101,shift,color,left,1,1,1.67982230261,left,0.7649575784674532,0.32659024944576476,6.4,0,0
101,shift,shape,left,1,1,0.495838503905,left,0.7649575784674532,0.32659024944576476,6.4,0,0
101,shift,shape,left,0,1,0.471861976545,left,0.7649575784674532,0.32659024944576476,6.4,0,0
101,shift,shape,left,0,1,0.431817266753,left,0.7649575784674532,0.32659024944576476,6.4,0,0
101,shift,shape,right,0,1,0.399849465015,right,0.7649575784674532,0.32659024944576476,6.4,0,0
101,shift,color,left,1,0,0.591818829192,right,0.7649575784674532,0.32659024944576476,6.4,0,0
101,shift,shape,right,1,1,1.23984369601,right,0.7649575784674532,0.32659024944576476,6.4,0,0
101,shift,color,right,1,1,0.943805680668,right,0.7649575784674532,0.32659024944576476,6.4,0,0
101,shift,color,left,0,1,1.19981581248,left,0.7649575784674532,0.32659024944576476,6.4,0,0
101,shift,shape,left,1,1,1.16781856478,left,0.7649575784674532,0.32659024944576476,6.4,0,0
101,shift,color,left,1,0,0.455823540547,right,0.7649575784674532,0.32659024944576476,6.4,0,0
101,shift,shape,left,1,1,1.01587107475,left,0.7649575784674532,0.32659024944576476,6.4,0,0
101,shift,shape,left,0,1,0.671797075234,left,0.7649575784674532,0.32659024944576476,6.4,0,0
101,shift,color,right,1,1,0.53586969259,right,0.7649575784674532,0.32659024944576476,6.4,0,0
101,shift,shape,right,1,1,1.03983257866,right,0.7649575784674532,0.32659024944576476,6.4,0,0
101,shift,color,right,1,1,1.0397875083,right,0.7649575784674532,0.32659024944576476,6.4,0,0
101,shift,color,left,0,1,1.103895581,left,0.7649575784674532,0.32659024944576476,6.4,0,0
101,shift,color,right,0,1,1.11983185753,right,0.7649575784674532,0.32659024944576476,6.4,0,0
101,shift,shape,left,1,1,1.34381589661,left,0.7649575784674532,0.32659024944576476,6.4,0,0
101,shift,color,left,1,1,1.34380207504,left,0.7649575784674532,0.32659024944576476,6.4,0,0
101,shift,color,right,0,1,0.951852842287,right,0.7649575784674532,0.32659024944576476,6.4,0,0
101,shift,shape,left,1,1,1.04781483896,left,0.7649575784674532,0.32659024944576476,6.4,0,0
101,shift,shape,right,0,1,1.02386295007,right,0.7649575784674532,0.32659024944576476,6.4,0,0
101,shift,shape,left,0,1,1.07180819259,left,0.7649575784674532,0.32659024944576476,6.4,0,0
102,shape,shape,right,0,1,0.466841239437,right,0.4959763981221,0.08790376538860764,2,0,0
102,shape,shape,right,0,1,0.623903248826,right,0.4959763981221,0.08790376538860764,2,0,0
102,shape,shape,right,0,1,0.57581971831,right,0.4959763981221,0.08790376538860764,2,0,0
102,shape,shape,left,0,1,0.471834140845,left,0.4959763981221,0.08790376538860764,2,0,0
102,shape,shape,left,0,1,0.695808300469,left,0.4959763981221,0.08790376538860764,2,0,0
102,shape,shape,left,0,1,0.447838647887,left,0.4959763981221,0.08790376538860764,2,0,0
102,shape,shape,right,0,1,0.383847361502,right,0.4959763981221,0.08790376538860764,2,0,0
102,shape,shape,right,0,1,0.391808300469,right,0.4959763981221,0.08790376538860764,2,0,0
102,shape,shape,left,0,1,0.559836544601,left,0.4959763981221,0.08790376538860764,2,0,0
102,shape,shape,left,0,1,0.391881314554,left,0.4959763981221,0.08790376538860764,2,0,0
102,shape,shape,left,0,1,0.519847661972,left,0.4959763981221,0.08790376538860764,2,0,0
102,shape,shape,right,0,1,0.5518257277,right,0.4959763981221,0.08790376538860764,2,0,0
102,shape,shape,left,0,1,0.503783661972,left,0.4959763981221,0.08790376538860764,2,0,0
102,shape,shape,right,0,1,0.479809201878,right,0.4959763981221,0.08790376538860764,2,0,0
102,shape,shape,left,0,1,0.447824525822,left,0.4959763981221,0.08790376538860764,2,0,0
102,shape,shape,left,0,1,0.447956431925,left,0.4959763981221,0.08790376538860764,2,0,0
102,shape,shape,right,0,1,0.351596469484,right,0.4959763981221,0.08790376538860764,2,0,0
102,shape,shape,right,0,1,0.567844056338,right,0.4959763981221,0.08790376538860764,2,0,0
102,shape,shape,left,0,1,0.575811004695,left,0.4959763981221,0.08790376538860764,2,0,0
102,shape,shape,right,0,1,0.463810403756,right,0.4959763981221,0.08790376538860764,2,0,0
102,color,color,right,0,1,0.471775248826,right,0.57182990422535,0.12092436555409747,2,0,0
102,color,color,left,0,1,0.543841652582,left,0.57182990422535,0.12092436555409747,2,0,0
102,color,color,right,0,1,0.791814610329,right,0.57182990422535,0.12092436555409747,2,0,0
102,color,color,right,0,1,0.735853671362,right,0.57182990422535,0.12092436555409747,2,0,0
102,color,color,right,0,1,0.463805295775,right,0.57182990422535,0.12092436555409747,2,0,0
102,color,color,left,0,1,0.527837746479,left,0.57182990422535,0.12092436555409747,2,0,0
102,color,color,right,0,1,0.447850065728,right,0.57182990422535,0.12092436555409747,2,0,0
102,color,color,right,0,1,0.775907455399,right,0.57182990422535,0.12092436555409747,2,0,0
102,color,color,left,0,1,0.575802892019,left,0.57182990422535,0.12092436555409747,2,0,0
102,color,color,left,0,1,0.479813408451,left,0.57182990422535,0.12092436555409747,2,0,0
102,color,color,left,0,1,0.463824826291,left,0.57182990422535,0.12092436555409747,2,0,0
102,color,color,left,0,1,0.703706441315,left,0.57182990422535,0.12092436555409747,2,0,0
102,color,color,right,0,1,0.479873201878,right,0.57182990422535,0.12092436555409747,2,0,0
102,color,color,left,0,1,0.807847361502,left,0.57182990422535,0.12092436555409747,2,0,0
102,color,color,left,0,1,0.519805596244,left,0.57182990422535,0.12092436555409747,2,0,0
102,color,color,left,0,1,0.591857877934,left,0.57182990422535,0.12092436555409747,2,0,0
102,color,color,left,0,1,0.543786366197,left,0.57182990422535,0.12092436555409747,2,0,0
102,color,color,right,0,1,0.52790084507,right,0.57182990422535,0.12092436555409747,2,0,0
102,color,color,right,0,1,0.511829934272,right,0.57182990422535,0.12092436555409747,2,0,0
102,color,color,right,0,1,0.471863586854,right,0.57182990422535,0.12092436555409747,2,0,0
102,shift,shape,right,1,1,0.543729577465,right,0.8469548826290938,0.3875292852671914,6.4,0,0
102,shift,shape,right,0,1,0.607744600939,right,0.8469548826290938,0.3875292852671914,6.4,0,0
102,shift,color,left,1,1,0.719891830986,left,0.8469548826290938,0.3875292852671914,6.4,0,0
102,shift,color,left,0,1,0.751808600939,left,0.8469548826290938,0.3875292852671914,6.4,0,0
102,shift,shape,left,1,0,0.471855774648,right,0.8469548826290938,0.3875292852671914,6.4,0,0
102,shift,color,left,1,1,0.559840450704,left,0.8469548826290938,0.3875292852671914,6.4,0,0
102,shift,shape,right,1,1,0.351838347418,right,0.8469548826290938,0.3875292852671914,6.4,0,0
102,shift,color,left,1,1,0.831863286385,left,0.8469548826290938,0.3875292852671914,6.4,0,0
102,shift,shape,left,1,1,0.487751812207,left,0.8469548826290938,0.3875292852671914,6.4,0,0
102,shift,shape,right,0,1,0.495841652582,right,0.8469548826290938,0.3875292852671914,6.4,0,0
102,shift,shape,left,0,1,0.623826328638,left,0.8469548826290938,0.3875292852671914,6.4,0,0
102,shift,color,right,1,1,0.415861784038,right,0.8469548826290938,0.3875292852671914,6.4,0,0
102,shift,color,right,0,1,0.52788341784,right,0.8469548826290938,0.3875292852671914,6.4,0,0
102,shift,color,left,0,1,0.37581400939,left,0.8469548826290938,0.3875292852671914,6.4,0,0
102,shift,color,right,0,1,0.423798985916,right,0.8469548826290938,0.3875292852671914,6.4,0,0
102,shift,shape,left,1,0,0.591850666667,right,0.8469548826290938,0.3875292852671914,6.4,0,0
102,shift,shape,left,0,1,0.927826028169,left,0.8469548826290938,0.3875292852671914,6.4,0,0
102,shift,color,right,1,1,0.695846159624,right,0.8469548826290938,0.3875292852671914,6.4,0,0
102,shift,color,left,0,1,0.855843455399,left,0.8469548826290938,0.3875292852671914,6.4,0,0
102,shift,color,right,0,1,0.975836244131,right,0.8469548826290938,0.3875292852671914,6.4,0,0
102,shift,color,right,0,1,1.0317331831,right,0.8469548826290938,0.3875292852671914,6.4,0,0
102,shift,shape,left,1,1,0.69584856338,left,0.8469548826290938,0.3875292852671914,6.4,0,0
102,shift,color,right,1,1,0.359819117371,right,0.8469548826290938,0.3875292852671914,6.4,0,0
102,shift,shape,right,1,1,0.519826929578,right,0.8469548826290938,0.3875292852671914,6.4,0,0
102,shift,shape,left,0,1,0.343811004695,left,0.8469548826290938,0.3875292852671914,6.4,0,0
102,shift,color,left,1,1,0.871838347418,left,0.8469548826290938,0.3875292852671914,6.4,0,0
102,shift,color,left,0,1,0.647803793427,left,0.8469548826290938,0.3875292852671914,6.4,0,0
102,shift,color,right,0,1,0.567905352113,right,0.8469548826290938,0.3875292852671914,6.4,0,0
102,shift,shape,left,1,1,0.455793577465,left,0.8469548826290938,0.3875292852671914,6.4,0,0
102,shift,color,right,1,0,0.527823023474,left,0.8469548826290938,0.3875292852671914,6.4,0,0
102,shift,color,left,0,0,1.38383534272,right,0.8469548826290938,0.3875292852671914,6.4,0,0
102,shift,color,right,0,1,1.23188642254,right,0.8469548826290938,0.3875292852671914,6.4,0,0
102,shift,shape,left,1,1,1.60770493897,left,0.8469548826290938,0.3875292852671914,6.4,0,0
102,shift,shape,right,0,1,0.783890328639,right,0.8469548826290938,0.3875292852671914,6.4,0,0
102,shift,color,right,1,1,0.711857276995,right,0.8469548826290938,0.3875292852671914,6.4,0,0
102,shift,shape,right,1,0,0.4798257277,left,0.8469548826290938,0.3875292852671914,6.4,0,0
102,shift,color,right,1,1,1.61584676056,right,0.8469548826290938,0.3875292852671914,6.4,0,0
102,shift,shape,right,1,1,1.06376893897,right,0.8469548826290938,0.3875292852671914,6.4,0,0
102,shift,color,left,1,1,1.87189092958,left,0.8469548826290938,0.3875292852671914,6.4,0,0
102,shift,shape,left,1,1,1.23185998122,left,0.8469548826290938,0.3875292852671914,6.4,0,0
102,shift,shape,right,0,1,1.28782843192,right,0.8469548826290938,0.3875292852671914,6.4,0,0
102,shift,color,right,1,1,1.03189333333,right,0.8469548826290938,0.3875292852671914,6.4,0,0
102,shift,color,right,0,1,0.959737389671,right,0.8469548826290938,0.3875292852671914,6.4,0,0
102,shift,color,left,0,1,0.895866892019,left,0.8469548826290938,0.3875292852671914,6.4,0,0
102,shift,shape,left,1,1,0.823838647887,left,0.8469548826290938,0.3875292852671914,6.4,0,0
102,shift,shape,right,0,1,1.06384886385,right,0.8469548826290938,0.3875292852671914,6.4,0,0
102,shift,color,left,1,1,1.09580499531,left,0.8469548826290938,0.3875292852671914,6.4,0,0
102,shift,shape,left,1,1,1.05585216901,left,0.8469548826290938,0.3875292852671914,6.4,0,0
102,shift,shape,left,0,1,0.871816112676,left,0.8469548826290938,0.3875292852671914,6.4,0,0
102,shift,color,right,1,1,1.12783203756,right,0.8469548826290938,0.3875292852671914,6.4,0,0
102,shift,shape,right,1,1,1.27186989671,right,0.8469548826290938,0.3875292852671914,6.4,0,0
102,shift,shape,right,0,1,0.567862985916,right,0.8469548826290938,0.3875292852671914,6.4,0,0
102,shift,shape,right,0,1,0.623840450704,right,0.8469548826290938,0.3875292852671914,6.4,0,0
102,shift,shape,right,0,1,0.511921877934,right,0.8469548826290938,0.3875292852671914,6.4,0,0
102,shift,color,left,1,1,0.423679699531,left,0.8469548826290938,0.3875292852671914,6.4,0,0
102,shift,shape,right,1,1,0.631793877934,right,0.8469548826290938,0.3875292852671914,6.4,0,0
102,shift,color,left,1,1,1.01587560563,left,0.8469548826290938,0.3875292852671914,6.4,0,0
102,shift,color,right,0,1,0.679808600939,right,0.8469548826290938,0.3875292852671914,6.4,0,0
102,shift,shape,right,1,1,1.37587169953,right,0.8469548826290938,0.3875292852671914,6.4,0,0
102,shift,shape,left,0,1,1.2557971831,left,0.8469548826290938,0.3875292852671914,6.4,0,0
102,shift,color,left,1,1,1.54386058216,left,0.8469548826290938,0.3875292852671914,6.4,0,0
102,shift,shape,left,1,1,2.02385066667,left,0.8469548826290938,0.3875292852671914,6.4,1,0
102,shift,shape,left,0,1,0.615836244131,left,0.8469548826290938,0.3875292852671914,6.4,0,0
102,shift,color,left,1,1,1.20780169014,left,0.8469548826290938,0.3875292852671914,6.4,0,0
103,shape,shape,left,0,1,0.785170328638,left,0.73348248638535,0.26571637385617786,2,0,0
103,shape,shape,left,0,1,0.60772086385,left,0.73348248638535,0.26571637385617786,2,0,0
103,shape,shape,right,0,1,0.655789070423,right,0.73348248638535,0.26571637385617786,2,0,0
103,shape,shape,left,0,1,0.431844657277,left,0.73348248638535,0.26571637385617786,2,0,0
103,shape,shape,right,0,1,0.527707943662,right,0.73348248638535,0.26571637385617786,2,0,0
103,shape,shape,left,0,1,0.535795981221,left,0.73348248638535,0.26571637385617786,2,0,0
103,shape,shape,right,0,1,0.76006369953,right,0.73348248638535,0.26571637385617786,2,0,0
103,shape,shape,right,0,1,0.70354599061,right,0.73348248638535,0.26571637385617786,2,0,0
103,shape,shape,left,0,1,0.711898441315,left,0.73348248638535,0.26571637385617786,2,0,0
103,shape,shape,right,0,1,0.735823323944,right,0.73348248638535,0.26571637385617786,2,0,0
103,shape,shape,right,0,1,1.27976353052,right,0.73348248638535,0.26571637385617786,2,0,0
103,shape,shape,right,0,1,0.63192458216,right,0.73348248638535,0.26571637385617786,2,0,0
103,shape,shape,left,0,1,0.447780957746,left,0.73348248638535,0.26571637385617786,2,0,0
103,shape,shape,right,0,1,0.567850366197,right,0.73348248638535,0.26571637385617786,2,0,0
103,shape,shape,left,0,1,0.575871699531,left,0.73348248638535,0.26571637385617786,2,0,0
103,shape,shape,left,0,0,0.503985577465,right,0.73348248638535,0.26571637385617786,2,0,0
103,shape,shape,right,0,1,0.823570629108,right,0.73348248638535,0.26571637385617786,2,0,0
103,shape,shape,left,0,1,0.919909258216,left,0.73348248638535,0.26571637385617786,2,0,0
103,shape,shape,left,0,1,0.999823323944,left,0.73348248638535,0.26571637385617786,2,0,0
103,shape,shape,right,0,1,1.46380950235,right,0.73348248638535,0.26571637385617786,2,0,0
103,color,color,right,0,1,0.799763830986,right,0.8470242403761999,0.3194719396379847,2,0,0
103,color,color,left,0,1,0.53587800939,left,0.8470242403761999,0.3194719396379847,2,0,0
103,color,color,right,0,1,0.679818516432,right,0.8470242403761999,0.3194719396379847,2,0,0
103,color,color,left,0,1,0.615993389671,left,0.8470242403761999,0.3194719396379847,2,0,0
103,color,color,left,0,1,1.63164093897,left,0.8470242403761999,0.3194719396379847,2,0,0
103,color,color,right,0,1,0.775974760563,right,0.8470242403761999,0.3194719396379847,2,0,0
103,color,color,right,0,1,0.743740694836,right,0.8470242403761999,0.3194719396379847,2,0,0
103,color,color,left,0,1,0.575784262911,left,0.8470242403761999,0.3194719396379847,2,0,0
103,color,color,left,0,1,0.895868394366,left,0.8470242403761999,0.3194719396379847,2,0,0
103,color,color,right,0,1,0.639899643192,right,0.8470242403761999,0.3194719396379847,2,0,0
103,color,color,right,0,1,0.983754215963,right,0.8470242403761999,0.3194719396379847,2,0,0
103,color,color,left,0,1,0.375781558685,left,0.8470242403761999,0.3194719396379847,2,0,0
103,color,color,left,0,1,0.767893633803,left,0.8470242403761999,0.3194719396379847,2,0,0
103,color,color,right,0,1,1.03987470423,right,0.8470242403761999,0.3194719396379847,2,0,0
103,color,color,left,0,1,0.591821521127,left,0.8470242403761999,0.3194719396379847,2,0,0
103,color,color,left,0,1,0.671797784038,left,0.8470242403761999,0.3194719396379847,2,0,0
103,color,color,right,0,1,0.775783962441,right,0.8470242403761999,0.3194719396379847,2,0,0
103,color,color,right,0,1,1.12775752113,right,0.8470242403761999,0.3194719396379847,2,0,0
103,color,color,left,0,1,1.2398365446,left,0.8470242403761999,0.3194719396379847,2,0,0
103,color,color,right,0,1,1.47182092019,right,0.8470242403761999,0.3194719396379847,2,0,0
103,shift,color,left,0,1,0.39984285446,left,1.053817469483625,0.4896787223585851,6.4,0,0
103,shift,color,left,0,1,1.17580950235,left,1.053817469483625,0.4896787223585851,6.4,0,0
103,shift,shape,left,1,1,1.27988221596,left,1.053817469483625,0.4896787223585851,6.4,0,0
103,shift,color,left,1,1,0.911816413145,left,1.053817469483625,0.4896787223585851,6.4,0,0
103,shift,shape,left,1,0,0.735635230047,right,1.053817469483625,0.4896787223585851,6.4,0,0
103,shift,shape,left,0,1,0.607790873239,left,1.053817469483625,0.4896787223585851,6.4,0,0
103,shift,color,right,1,1,0.73570914554,right,1.053817469483625,0.4896787223585851,6.4,0,0
103,shift,shape,right,1,1,0.527817314554,right,1.053817469483625,0.4896787223585851,6.4,0,0
103,shift,shape,right,0,1,1.26394861972,right,1.053817469483625,0.4896787223585851,6.4,0,0
103,shift,color,right,1,0,0.799850666667,left,1.053817469483625,0.4896787223585851,6.4,0,0
103,shift,color,right,0,1,0.935800187793,right,1.053817469483625,0.4896787223585851,6.4,0,0
103,shift,shape,left,1,1,0.743770441315,left,1.053817469483625,0.4896787223585851,6.4,0,0
103,shift,shape,left,0,1,0.535859680751,left,1.053817469483625,0.4896787223585851,6.4,0,0
103,shift,color,left,1,1,2.1357686385,left,1.053817469483625,0.4896787223585851,6.4,0,0
103,shift,color,right,0,1,0.535884319249,right,1.053817469483625,0.4896787223585851,6.4,0,0
103,shift,shape,left,1,0,0.663853070422,right,1.053817469483625,0.4896787223585851,6.4,0,0
103,shift,shape,right,0,1,0.839736788732,right,1.053817469483625,0.4896787223585851,6.4,0,0
103,shift,color,right,1,1,1.2398326385,right,1.053817469483625,0.4896787223585851,6.4,0,0
103,shift,color,right,0,1,0.927852169014,right,1.053817469483625,0.4896787223585851,6.4,0,0
103,shift,color,left,0,1,1.56789964319,left,1.053817469483625,0.4896787223585851,6.4,0,0
103,shift,color,right,0,1,1.2635697277,right,1.053817469483625,0.4896787223585851,6.4,0,0
103,shift,shape,right,1,1,1.38388702347,right,1.053817469483625,0.4896787223585851,6.4,0,0
103,shift,shape,right,0,0,0.783821821596,left,1.053817469483625,0.4896787223585851,6.4,0,0
103,shift,color,left,1,1,1.78389153052,left,1.053817469483625,0.4896787223585851,6.4,0,0
103,shift,color,left,0,1,1.8236514554,left,1.053817469483625,0.4896787223585851,6.4,0,0
103,shift,shape,left,1,1,1.0400216338,left,1.053817469483625,0.4896787223585851,6.4,0,0
103,shift,color,right,1,1,3.31159316432,right,1.053817469483625,0.4896787223585851,6.4,1,0
103,shift,shape,right,1,1,1.44783534272,right,1.053817469483625,0.4896787223585851,6.4,0,0
103,shift,shape,left,0,1,0.727868093897,left,1.053817469483625,0.4896787223585851,6.4,0,0
103,shift,shape,left,0,1,0.423830535211,left,1.053817469483625,0.4896787223585851,6.4,0,0
103,shift,color,left,1,1,0.735762028169,left,1.053817469483625,0.4896787223585851,6.4,0,0
103,shift,color,right,0,1,0.75990715493,right,1.053817469483625,0.4896787223585851,6.4,0,0
103,shift,color,left,0,1,0.72775571831,left,1.053817469483625,0.4896787223585851,6.4,0,0
103,shift,shape,left,1,0,1.00789814085,right,1.053817469483625,0.4896787223585851,6.4,0,0
103,shift,shape,right,0,0,0.727880713615,left,1.053817469483625,0.4896787223585851,6.4,0,0
103,shift,shape,left,0,1,0.879658065728,left,1.053817469483625,0.4896787223585851,6.4,0,0
103,shift,shape,right,0,1,0.879887924883,right,1.053817469483625,0.4896787223585851,6.4,0,0
103,shift,color,right,1,1,1.49584946479,right,1.053817469483625,0.4896787223585851,6.4,0,0
103,shift,color,left,0,1,0.919789971831,left,1.053817469483625,0.4896787223585851,6.4,0,0
103,shift,shape,left,1,0,1.06386629108,right,1.053817469483625,0.4896787223585851,6.4,0,0
103,shift,shape,left,0,1,1.00787830986,left,1.053817469483625,0.4896787223585851,6.4,0,0
103,shift,color,left,1,1,0.623794779343,left,1.053817469483625,0.4896787223585851,6.4,0,0
103,shift,shape,right,1,1,0.82380229108,right,1.053817469483625,0.4896787223585851,6.4,0,0
103,shift,shape,right,0,1,0.84780830047,right,1.053817469483625,0.4896787223585851,6.4,0,0
103,shift,color,right,1,1,0.839806497653,right,1.053817469483625,0.4896787223585851,6.4,0,0
103,shift,color,right,0,1,1.48786388732,right,1.053817469483625,0.4896787223585851,6.4,0,0
103,shift,shape,left,1,1,1.24789633803,left,1.053817469483625,0.4896787223585851,6.4,0,0
103,shift,color,right,1,1,0.775751511737,right,1.053817469483625,0.4896787223585851,6.4,0,0
103,shift,color,left,0,1,1.53580890141,left,1.053817469483625,0.4896787223585851,6.4,0,0
103,shift,shape,right,1,1,1.24789844131,right,1.053817469483625,0.4896787223585851,6.4,0,0
103,shift,color,left,1,1,1.75183444131,left,1.053817469483625,0.4896787223585851,6.4,0,0
103,shift,color,left,0,1,1.11980319249,left,1.053817469483625,0.4896787223585851,6.4,0,0
103,shift,shape,right,1,1,2.22383894836,right,1.053817469483625,0.4896787223585851,6.4,0,0
103,shift,shape,right,0,1,1.2397656338,right,1.053817469483625,0.4896787223585851,6.4,0,0
103,shift,color,right,1,1,0.679836544601,right,1.053817469483625,0.4896787223585851,6.4,0,0
103,shift,color,right,0,0,0.959820018779,left,1.053817469483625,0.4896787223585851,6.4,0,0
103,shift,color,right,0,0,0.792103661972,left,1.053817469483625,0.4896787223585851,6.4,0,0
103,shift,shape,right,1,1,0.983582948357,right,1.053817469483625,0.4896787223585851,6.4,0,0
103,shift,shape,right,0,1,0.647815211268,right,1.053817469483625,0.4896787223585851,6.4,0,0
103,shift,shape,left,0,1,0.671777953052,left,1.053817469483625,0.4896787223585851,6.4,0,0
103,shift,color,left,1,1,0.991853671361,left,1.053817469483625,0.4896787223585851,6.4,0,0
103,shift,shape,left,1,1,1.54387350235,left,1.053817469483625,0.4896787223585851,6.4,0,0
103,shift,shape,right,0,1,0.74375571831,right,1.053817469483625,0.4896787223585851,6.4,0,0
103,shift,color,left,1,0,0.903761126761,right,1.053817469483625,0.4896787223585851,6.4,0,0
104,color,color,right,0,1,0.864219643192,right,0.8178436507037999,0.34318187594477195,2,0,0
104,color,color,left,0,1,0.767741596244,left,0.8178436507037999,0.34318187594477195,2,0,0
104,color,color,right,0,1,0.559852169014,right,0.8178436507037999,0.34318187594477195,2,0,0
104,color,color,right,0,1,0.407828732394,right,0.8178436507037999,0.34318187594477195,2,0,0
104,color,color,left,0,1,0.51980769953,left,0.8178436507037999,0.34318187594477195,2,0,0
104,color,color,left,0,1,0.703839248826,left,0.8178436507037999,0.34318187594477195,2,0,0
104,color,color,left,0,1,0.759774347418,left,0.8178436507037999,0.34318187594477195,2,0,0
104,color,color,right,0,1,0.671859079812,right,0.8178436507037999,0.34318187594477195,2,0,0
104,color,color,right,0,1,0.639834140845,right,0.8178436507037999,0.34318187594477195,2,0,0
104,color,color,right,0,1,0.64784856338,right,0.8178436507037999,0.34318187594477195,2,0,0
104,color,color,right,0,1,0.711823924883,right,0.8178436507037999,0.34318187594477195,2,0,0
104,color,color,left,0,1,1.20778937089,left,0.8178436507037999,0.34318187594477195,2,0,0
104,color,color,left,0,1,1.02387049765,left,0.8178436507037999,0.34318187594477195,2,0,0
104,color,color,right,0,1,0.735833239437,right,0.8178436507037999,0.34318187594477195,2,0,0
104,color,color,left,0,1,0.671794178404,left,0.8178436507037999,0.34318187594477195,2,0,0
104,color,color,right,0,1,1.91184075117,right,0.8178436507037999,0.34318187594477195,2,1,0
104,color,color,left,0,1,1.37579658216,left,0.8178436507037999,0.34318187594477195,2,0,0
104,color,color,left,0,1,0.887858178404,left,0.8178436507037999,0.34318187594477195,2,0,0
104,color,color,right,0,1,0.687832638498,right,0.8178436507037999,0.34318187594477195,2,0,0
104,color,color,left,0,1,0.599828431925,left,0.8178436507037999,0.34318187594477195,2,0,0
104,shape,shape,left,0,1,1.33582753052,left,0.9614001427226,0.1888457784271967,2,0,0
104,shape,shape,right,0,1,1.0717509108,right,0.9614001427226,0.1888457784271967,2,0,0
104,shape,shape,left,0,1,0.719879812207,left,0.9614001427226,0.1888457784271967,2,0,0
104,shape,shape,right,0,1,0.815814309859,right,0.9614001427226,0.1888457784271967,2,0,0
104,shape,shape,left,0,1,0.759943812207,left,0.9614001427226,0.1888457784271967,2,0,0
104,shape,shape,left,0,1,0.743713051643,left,0.9614001427226,0.1888457784271967,2,0,0
104,shape,shape,right,0,1,0.863811605634,right,0.9614001427226,0.1888457784271967,2,0,0
104,shape,shape,right,0,1,0.959808600939,right,0.9614001427226,0.1888457784271967,2,0,0
104,shape,shape,right,0,1,1.03985877934,right,0.9614001427226,0.1888457784271967,2,0,0
104,shape,shape,right,0,1,0.751655962441,right,0.9614001427226,0.1888457784271967,2,0,0
104,shape,shape,left,0,1,0.919811906103,left,0.9614001427226,0.1888457784271967,2,0,0
104,shape,shape,left,0,1,1.02383023474,left,0.9614001427226,0.1888457784271967,2,0,0
104,shape,shape,right,0,1,0.983816112676,right,0.9614001427226,0.1888457784271967,2,0,0
104,shape,shape,left,0,1,1.33582001878,left,0.9614001427226,0.1888457784271967,2,0,0
104,shape,shape,left,0,1,1.17584585915,left,0.9614001427226,0.1888457784271967,2,0,0
104,shape,shape,right,0,1,0.951842553991,right,0.9614001427226,0.1888457784271967,2,0,0
104,shape,shape,left,0,1,0.855890028169,left,0.9614001427226,0.1888457784271967,2,0,0
104,shape,shape,right,0,1,1.19977615023,right,0.9614001427226,0.1888457784271967,2,0,0
104,shape,shape,left,0,1,0.767495511737,left,0.9614001427226,0.1888457784271967,2,0,0
104,shape,shape,right,0,1,0.951810103286,right,0.9614001427226,0.1888457784271967,2,0,0
104,shift,shape,right,0,1,0.967827230047,right,1.0291966666669219,0.35510315461226705,6.4,0,0
104,shift,color,right,1,0,0.84779628169,left,1.0291966666669219,0.35510315461226705,6.4,0,0
104,shift,color,right,0,0,0.807840150235,left,1.0291966666669219,0.35510315461226705,6.4,0,0
104,shift,color,left,0,0,1.10387260094,right,1.0291966666669219,0.35510315461226705,6.4,0,0
104,shift,shape,left,1,1,0.599765032864,left,1.0291966666669219,0.35510315461226705,6.4,0,0
104,shift,shape,left,0,1,0.815788169014,left,1.0291966666669219,0.35510315461226705,6.4,0,0
104,shift,shape,left,0,1,0.687824525822,left,1.0291966666669219,0.35510315461226705,6.4,0,0
104,shift,shape,right,0,1,0.71190114554,right,1.0291966666669219,0.35510315461226705,6.4,0,0
104,shift,color,right,1,1,1.00775301408,right,1.0291966666669219,0.35510315461226705,6.4,0,0
104,shift,shape,right,1,1,0.599905051643,right,1.0291966666669219,0.35510315461226705,6.4,0,0
104,shift,color,left,1,1,0.799783361502,left,1.0291966666669219,0.35510315461226705,6.4,0,0
104,shift,color,left,0,1,0.831817314554,left,1.0291966666669219,0.35510315461226705,6.4,0,0
104,shift,shape,right,1,1,1.35179838498,right,1.0291966666669219,0.35510315461226705,6.4,0,0
104,shift,shape,right,0,1,0.855814610329,right,1.0291966666669219,0.35510315461226705,6.4,0,0
104,shift,color,left,1,1,0.783809502347,left,1.0291966666669219,0.35510315461226705,6.4,0,0
104,shift,color,left,0,1,0.895891230047,left,1.0291966666669219,0.35510315461226705,6.4,0,0
104,shift,shape,left,1,1,1.19977975587,left,1.0291966666669219,0.35510315461226705,6.4,0,0
104,shift,color,left,1,1,1.15982753052,left,1.0291966666669219,0.35510315461226705,6.4,0,0
104,shift,color,right,0,1,1.46386478873,right,1.0291966666669219,0.35510315461226705,6.4,0,0
104,shift,color,left,0,1,0.77576743662,left,1.0291966666669219,0.35510315461226705,6.4,0,0
104,shift,shape,right,1,1,0.97580199061,right,1.0291966666669219,0.35510315461226705,6.4,0,0
104,shift,color,right,1,0,0.991784262911,left,1.0291966666669219,0.35510315461226705,6.4,0,0
104,shift,shape,left,1,1,1.53589333333,left,1.0291966666669219,0.35510315461226705,6.4,0,0
104,shift,color,left,1,1,0.791750610329,left,1.0291966666669219,0.35510315461226705,6.4,0,0
104,shift,color,left,0,1,0.735857276995,left,1.0291966666669219,0.35510315461226705,6.4,0,0
104,shift,color,left,0,1,1.11987169953,left,1.0291966666669219,0.35510315461226705,6.4,0,0
104,shift,shape,left,1,1,1.59176803756,left,1.0291966666669219,0.35510315461226705,6.4,0,0
104,shift,shape,left,0,1,0.847876807512,left,1.0291966666669219,0.35510315461226705,6.4,0,0
104,shift,color,right,1,1,0.919864488263,right,1.0291966666669219,0.35510315461226705,6.4,0,0
104,shift,shape,left,1,1,1.4477902723,left,1.0291966666669219,0.35510315461226705,6.4,0,0
104,shift,shape,right,0,1,1.57587320188,right,1.0291966666669219,0.35510315461226705,6.4,0,0
104,shift,shape,left,0,1,0.6077262723,left,1.0291966666669219,0.35510315461226705,6.4,0,0
104,shift,shape,right,0,1,0.92783684507,right,1.0291966666669219,0.35510315461226705,6.4,0,0
104,shift,color,right,1,0,1.56783053521,left,1.0291966666669219,0.35510315461226705,6.4,0,0
104,shift,color,right,0,1,1.08779267606,right,1.0291966666669219,0.35510315461226705,6.4,0,0
104,shift,shape,right,1,1,0.847868995305,right,1.0291966666669219,0.35510315461226705,6.4,0,0
104,shift,shape,right,0,1,0.735844356808,right,1.0291966666669219,0.35510315461226705,6.4,0,0
104,shift,shape,left,0,1,0.471818215962,left,1.0291966666669219,0.35510315461226705,6.4,0,0
104,shift,color,right,1,1,1.06390084507,right,1.0291966666669219,0.35510315461226705,6.4,0,0
104,shift,shape,right,1,1,0.751812807512,right,1.0291966666669219,0.35510315461226705,6.4,0,0
104,shift,shape,right,0,1,1.34383323944,right,1.0291966666669219,0.35510315461226705,6.4,0,0
104,shift,shape,left,0,1,1.26377134272,left,1.0291966666669219,0.35510315461226705,6.4,0,0
104,shift,color,right,1,1,0.583817615023,right,1.0291966666669219,0.35510315461226705,6.4,0,0
104,shift,color,left,0,1,1.15184796244,left,1.0291966666669219,0.35510315461226705,6.4,0,0
104,shift,shape,right,1,1,0.679841352113,right,1.0291966666669219,0.35510315461226705,6.4,0,0
104,shift,shape,left,0,1,1.2398680939,left,1.0291966666669219,0.35510315461226705,6.4,0,0
104,shift,shape,left,0,1,0.639754516432,left,1.0291966666669219,0.35510315461226705,6.4,0,0
104,shift,color,right,1,1,0.991859380282,right,1.0291966666669219,0.35510315461226705,6.4,0,0
104,shift,shape,right,1,1,1.27977494836,right,1.0291966666669219,0.35510315461226705,6.4,0,0
104,shift,color,right,1,1,0.871889126761,right,1.0291966666669219,0.35510315461226705,6.4,0,0
104,shift,color,right,0,1,0.823824225352,right,1.0291966666669219,0.35510315461226705,6.4,0,0
104,shift,shape,right,1,1,1.23185667606,right,1.0291966666669219,0.35510315461226705,6.4,0,0
104,shift,color,left,1,1,2.38375151174,left,1.0291966666669219,0.35510315461226705,6.4,1,0
104,shift,color,left,0,1,0.543847661972,left,1.0291966666669219,0.35510315461226705,6.4,0,0
104,shift,shape,left,1,1,0.543743399061,left,1.0291966666669219,0.35510315461226705,6.4,0,0
104,shift,shape,right,0,1,1.18388852582,right,1.0291966666669219,0.35510315461226705,6.4,0,0
104,shift,color,left,1,1,1.71985276995,left,1.0291966666669219,0.35510315461226705,6.4,0,0
104,shift,color,left,0,1,1.51183053521,left,1.0291966666669219,0.35510315461226705,6.4,0,0
104,shift,shape,left,1,1,1.70376052582,left,1.0291966666669219,0.35510315461226705,6.4,0,0
104,shift,color,left,1,1,1.04781641315,left,1.0291966666669219,0.35510315461226705,6.4,0,0
104,shift,shape,left,1,1,1.07984315493,left,1.0291966666669219,0.35510315461226705,6.4,0,0
104,shift,color,right,1,1,1.18385637559,right,1.0291966666669219,0.35510315461226705,6.4,0,0
104,shift,color,right,0,1,1.01567939906,right,1.0291966666669219,0.35510315461226705,6.4,0,0
104,shift,color,right,0,1,0.983787267606,right,1.0291966666669219,0.35510315461226705,6.4,0,0
105,color,color,left,0,1,0.608198309859,left,0.43824075117365,0.05492603166553387,2,1,0
105,color,color,right,0,1,0.407847361502,right,0.43824075117365,0.05492603166553387,2,0,0
105,color,color,right,0,1,0.463819117371,right,0.43824075117365,0.05492603166553387,2,0,0
105,color,color,left,0,1,0.4717262723,left,0.43824075117365,0.05492603166553387,2,0,0
105,color,color,left,0,1,0.415840150235,left,0.43824075117365,0.05492603166553387,2,0,0
105,color,color,right,0,1,0.431849765258,right,0.43824075117365,0.05492603166553387,2,0,0
105,color,color,left,0,1,0.431859079812,left,0.43824075117365,0.05492603166553387,2,0,0
105,color,color,right,0,1,0.35977915493,right,0.43824075117365,0.05492603166553387,2,0,0
105,color,color,left,0,1,0.391873802817,left,0.43824075117365,0.05492603166553387,2,0,0
105,color,color,right,0,1,0.415835342723,right,0.43824075117365,0.05492603166553387,2,0,0
105,color,color,left,0,1,0.335783061033,left,0.43824075117365,0.05492603166553387,2,0,0
105,color,color,right,0,1,0.431843455399,right,0.43824075117365,0.05492603166553387,2,0,0
105,color,color,left,0,1,0.455854873239,left,0.43824075117365,0.05492603166553387,2,0,0
105,color,color,left,0,1,0.447814309859,left,0.43824075117365,0.05492603166553387,2,0,0
105,color,color,right,0,1,0.447846460094,right,0.43824075117365,0.05492603166553387,2,0,0
105,color,color,right,0,1,0.43176713615,right,0.43824075117365,0.05492603166553387,2,0,0
105,color,color,left,0,1,0.479891230047,left,0.43824075117365,0.05492603166553387,2,0,0
105,color,color,right,0,1,0.399667380282,right,0.43824075117365,0.05492603166553387,2,0,0
105,color,color,right,0,1,0.479950422535,right,0.43824075117365,0.05492603166553387,2,0,0
105,color,color,left,0,1,0.455768338028,left,0.43824075117365,0.05492603166553387,2,0,0
105,shape,shape,left,0,1,0.535843755869,left,0.5754232338027,0.1693095032934972,2,0,0
105,shape,shape,left,0,0,0.455893633803,right,0.5754232338027,0.1693095032934972,2,0,0
105,shape,shape,right,0,1,0.623733784038,right,0.5754232338027,0.1693095032934972,2,0,0
105,shape,shape,left,0,0,0.663809802817,right,0.5754232338027,0.1693095032934972,2,0,0
105,shape,shape,right,0,1,1.01594651643,right,0.5754232338027,0.1693095032934972,2,0,0
105,shape,shape,right,0,1,0.847786065728,right,0.5754232338027,0.1693095032934972,2,0,0
105,shape,shape,right,0,1,0.543859981221,right,0.5754232338027,0.1693095032934972,2,0,0
105,shape,shape,left,0,1,0.735864788732,left,0.5754232338027,0.1693095032934972,2,0,0
105,shape,shape,right,0,1,0.775713953052,right,0.5754232338027,0.1693095032934972,2,0,0
105,shape,shape,left,0,1,0.535798985915,left,0.5754232338027,0.1693095032934972,2,0,0
105,shape,shape,right,0,1,0.591848262911,right,0.5754232338027,0.1693095032934972,2,0,0
105,shape,shape,left,0,1,0.655886422535,left,0.5754232338027,0.1693095032934972,2,0,0
105,shape,shape,left,0,1,0.367683004695,left,0.5754232338027,0.1693095032934972,2,0,0
105,shape,shape,right,0,1,0.415856075117,right,0.5754232338027,0.1693095032934972,2,0,0
105,shape,shape,left,0,1,0.35981370892,left,0.5754232338027,0.1693095032934972,2,0,0
105,shape,shape,left,0,1,0.407857276995,left,0.5754232338027,0.1693095032934972,2,0,0
105,shape,shape,right,0,1,0.511843455399,right,0.5754232338027,0.1693095032934972,2,0,0
105,shape,shape,right,0,1,0.44784856338,right,0.5754232338027,0.1693095032934972,2,0,0
105,shape,shape,right,0,1,0.543759023474,right,0.5754232338027,0.1693095032934972,2,0,0
105,shape,shape,left,0,1,0.471817615023,left,0.5754232338027,0.1693095032934972,2,0,0
105,shift,color,left,1,1,0.391866591549,left,0.7867001361504687,0.28177691906946806,6.4,0,0
105,shift,shape,right,1,1,0.439890929577,right,0.7867001361504687,0.28177691906946806,6.4,0,0
105,shift,shape,right,0,1,0.551728976526,right,0.7867001361504687,0.28177691906946806,6.4,0,0
105,shift,color,left,1,1,0.511876507042,left,0.7867001361504687,0.28177691906946806,6.4,0,0
105,shift,color,right,0,1,0.447764131455,right,0.7867001361504687,0.28177691906946806,6.4,0,0
105,shift,color,right,0,1,0.535769840376,right,0.7867001361504687,0.28177691906946806,6.4,0,0
105,shift,color,left,0,1,0.439946516432,left,0.7867001361504687,0.28177691906946806,6.4,0,0
105,shift,shape,left,1,1,0.887682704225,left,0.7867001361504687,0.28177691906946806,6.4,0,0
105,shift,color,right,1,0,0.90389543662,left,0.7867001361504687,0.28177691906946806,6.4,0,0
105,shift,color,left,0,1,0.663795079812,left,0.7867001361504687,0.28177691906946806,6.4,0,0
105,shift,color,left,0,0,0.687816713615,right,0.7867001361504687,0.28177691906946806,6.4,0,0
105,shift,shape,right,1,1,0.607891830986,right,0.7867001361504687,0.28177691906946806,6.4,0,0
105,shift,color,left,1,1,1.087744,left,0.7867001361504687,0.28177691906946806,6.4,0,0
105,shift,color,right,0,1,0.975841051643,right,0.7867001361504687,0.28177691906946806,6.4,0,0
105,shift,shape,left,1,0,0.807867492958,right,0.7867001361504687,0.28177691906946806,6.4,0,0
105,shift,shape,right,0,1,1.04777915493,right,0.7867001361504687,0.28177691906946806,6.4,0,0
105,shift,shape,left,0,0,1.35188341784,right,0.7867001361504687,0.28177691906946806,6.4,0,0
105,shift,shape,right,0,1,1.73588011268,right,0.7867001361504687,0.28177691906946806,6.4,1,0
105,shift,color,left,1,1,0.927713352113,left,0.7867001361504687,0.28177691906946806,6.4,0,0
105,shift,color,left,0,1,1.07987139906,left,0.7867001361504687,0.28177691906946806,6.4,0,0
105,shift,shape,right,1,1,0.567819117371,right,0.7867001361504687,0.28177691906946806,6.4,0,0
105,shift,shape,right,0,1,0.479840150235,right,0.7867001361504687,0.28177691906946806,6.4,0,0
105,shift,color,right,1,1,0.431830234742,right,0.7867001361504687,0.28177691906946806,6.4,0,0
105,shift,color,left,0,1,0.511841352113,left,0.7867001361504687,0.28177691906946806,6.4,0,0
105,shift,shape,left,1,1,0.391855774648,left,0.7867001361504687,0.28177691906946806,6.4,0,0
105,shift,color,right,1,1,0.607747004695,right,0.7867001361504687,0.28177691906946806,6.4,0,0
105,shift,color,left,0,1,0.455834741784,left,0.7867001361504687,0.28177691906946806,6.4,0,0
105,shift,color,right,0,1,0.519857877934,right,0.7867001361504687,0.28177691906946806,6.4,0,0
105,shift,color,left,0,1,0.783772244132,left,0.7867001361504687,0.28177691906946806,6.4,0,0
105,shift,shape,right,1,1,0.799854873239,right,0.7867001361504687,0.28177691906946806,6.4,0,0
105,shift,shape,left,0,1,0.703840150235,left,0.7867001361504687,0.28177691906946806,6.4,0,0
105,shift,color,left,1,1,0.799826929577,left,0.7867001361504687,0.28177691906946806,6.4,0,0
105,shift,shape,left,1,1,1.28787410329,left,0.7867001361504687,0.28177691906946806,6.4,0,0
105,shift,color,right,1,0,0.879768638498,left,0.7867001361504687,0.28177691906946806,6.4,0,0
105,shift,color,right,0,1,0.991976262911,right,0.7867001361504687,0.28177691906946806,6.4,0,0
105,shift,shape,right,1,1,1.17564574648,right,0.7867001361504687,0.28177691906946806,6.4,0,0
105,shift,shape,left,0,1,1.14380980282,left,0.7867001361504687,0.28177691906946806,6.4,0,0
105,shift,shape,right,0,1,0.663803192488,right,0.7867001361504687,0.28177691906946806,6.4,0,0
105,shift,shape,right,0,0,0.967982272301,left,0.7867001361504687,0.28177691906946806,6.4,0,0
105,shift,color,left,1,1,1.25570433803,left,0.7867001361504687,0.28177691906946806,6.4,0,0
105,shift,color,left,0,1,0.799884319249,left,0.7867001361504687,0.28177691906946806,6.4,0,0
105,shift,shape,left,1,1,0.735772244132,left,0.7867001361504687,0.28177691906946806,6.4,0,0
105,shift,shape,left,0,1,1.08785938028,left,0.7867001361504687,0.28177691906946806,6.4,0,0
105,shift,shape,right,0,1,0.695907455399,right,0.7867001361504687,0.28177691906946806,6.4,0,0
105,shift,color,left,1,1,0.775807699531,left,0.7867001361504687,0.28177691906946806,6.4,0,0
105,shift,shape,left,1,1,1.11182242254,left,0.7867001361504687,0.28177691906946806,6.4,0,0
105,shift,shape,left,0,1,0.623716356808,left,0.7867001361504687,0.28177691906946806,6.4,0,0
105,shift,shape,right,0,1,0.687878910798,right,0.7867001361504687,0.28177691906946806,6.4,0,0
105,shift,color,right,1,0,0.575805596244,left,0.7867001361504687,0.28177691906946806,6.4,0,0
105,shift,color,left,0,1,0.775826028169,left,0.7867001361504687,0.28177691906946806,6.4,0,0
105,shift,color,right,0,1,1.03185938028,right,0.7867001361504687,0.28177691906946806,6.4,0,0
105,shift,shape,left,1,0,1.07979477934,right,0.7867001361504687,0.28177691906946806,6.4,0,0
105,shift,shape,right,0,1,1.06380950235,right,0.7867001361504687,0.28177691906946806,6.4,0,0
105,shift,color,right,1,1,0.887898741784,right,0.7867001361504687,0.28177691906946806,6.4,0,0
105,shift,color,right,0,1,0.5597902723,right,0.7867001361504687,0.28177691906946806,6.4,0,0
105,shift,color,right,0,1,0.423820018779,right,0.7867001361504687,0.28177691906946806,6.4,0,0
105,shift,shape,right,1,1,0.879846460094,right,0.7867001361504687,0.28177691906946806,6.4,0,0
105,shift,color,right,1,1,0.943814610329,right,0.7867001361504687,0.28177691906946806,6.4,0,0
105,shift,shape,left,1,1,0.679783661972,left,0.7867001361504687,0.28177691906946806,6.4,0,0
105,shift,shape,left,0,1,0.983892431925,left,0.7867001361504687,0.28177691906946806,6.4,0,0
105,shift,shape,left,0,1,0.495796882629,left,0.7867001361504687,0.28177691906946806,6.4,0,0
105,shift,shape,left,0,1,0.351817014084,left,0.7867001361504687,0.28177691906946806,6.4,0,0
105,shift,color,right,1,1,0.615882215962,right,0.7867001361504687,0.28177691906946806,6.4,0,0
105,shift,shape,right,1,1,0.97573228169,right,0.7867001361504687,0.28177691906946806,6.4,0,0
106,shape,shape,left,0,1,0.546537060195,left,0.58275132912635,0.10679485271291612,2,0,0
106,shape,shape,left,0,1,0.519767941478,left,0.58275132912635,0.10679485271291612,2,0,0
106,shape,shape,right,0,1,0.655825891207,right,0.58275132912635,0.10679485271291612,2,0,0
106,shape,shape,right,0,1,0.575935586573,right,0.58275132912635,0.10679485271291612,2,0,0
106,shape,shape,left,0,1,0.527777854564,left,0.58275132912635,0.10679485271291612,2,0,0
106,shape,shape,left,0,1,0.503802500266,left,0.58275132912635,0.10679485271291612,2,0,0
106,shape,shape,left,0,1,0.551795274578,left,0.58275132912635,0.10679485271291612,2,0,0
106,shape,shape,right,0,1,0.799807519307,right,0.58275132912635,0.10679485271291612,2,0,0
106,shape,shape,right,0,1,0.799859500512,right,0.58275132912635,0.10679485271291612,2,0,0
106,shape,shape,left,0,1,0.711770588013,left,0.58275132912635,0.10679485271291612,2,0,0
106,shape,shape,right,0,1,0.527816314647,right,0.58275132912635,0.10679485271291612,2,0,0
106,shape,shape,right,0,1,0.471843674188,right,0.58275132912635,0.10679485271291612,2,0,0
106,shape,shape,left,0,1,0.703920224174,left,0.58275132912635,0.10679485271291612,2,0,0
106,shape,shape,right,0,1,0.487708758623,right,0.58275132912635,0.10679485271291612,2,0,0
106,shape,shape,right,0,1,0.503993298331,right,0.58275132912635,0.10679485271291612,2,0,0
106,shape,shape,left,0,1,0.591659149924,left,0.58275132912635,0.10679485271291612,2,0,0
106,shape,shape,left,0,1,0.471905270413,left,0.58275132912635,0.10679485271291612,2,0,0
106,shape,shape,right,0,1,0.663815071905,right,0.58275132912635,0.10679485271291612,2,0,0
106,shape,shape,left,0,1,0.439709974923,left,0.58275132912635,0.10679485271291612,2,0,0
106,shape,shape,right,0,1,0.599775128706,right,0.58275132912635,0.10679485271291612,2,0,0
106,color,color,left,0,0,0.895815302666,right,0.75022458584785,0.5589432830278516,2,0,0
106,color,color,left,0,0,0.6158487389,right,0.75022458584785,0.5589432830278516,2,0,0
106,color,color,right,0,0,0.535874603305,left,0.75022458584785,0.5589432830278516,2,0,0
106,color,color,left,0,0,0.575782347183,right,0.75022458584785,0.5589432830278516,2,0,0
106,color,color,left,0,0,0.551862579722,right,0.75022458584785,0.5589432830278516,2,0,0
106,color,color,left,0,0,0.439841580517,right,0.75022458584785,0.5589432830278516,2,0,0
106,color,color,right,0,0,0.551851462354,left,0.75022458584785,0.5589432830278516,2,0,0
106,color,color,right,0,0,0.551833434191,left,0.75022458584785,0.5589432830278516,2,0,0
106,color,color,left,0,0,0.639783229361,right,0.75022458584785,0.5589432830278516,2,0,0
106,color,color,left,0,1,3.0638867639,left,0.75022458584785,0.5589432830278516,2,1,0
106,color,color,right,0,1,0.543822018758,right,0.75022458584785,0.5589432830278516,2,0,0
106,color,color,right,0,1,0.767787397472,right,0.75022458584785,0.5589432830278516,2,0,0
106,color,color,right,0,1,0.45581182924,right,0.75022458584785,0.5589432830278516,2,0,0
106,color,color,left,0,0,0.607868271814,right,0.75022458584785,0.5589432830278516,2,0,0
106,color,color,right,0,1,0.639776018095,right,0.75022458584785,0.5589432830278516,2,0,0
106,color,color,right,0,1,0.791836366772,right,0.75022458584785,0.5589432830278516,2,0,0
106,color,color,right,0,1,0.511805202087,right,0.75022458584785,0.5589432830278516,2,0,0
106,color,color,left,0,0,0.639849332627,right,0.75022458584785,0.5589432830278516,2,0,0
106,color,color,left,0,1,0.823810817259,left,0.75022458584785,0.5589432830278516,2,0,0
106,color,color,right,0,1,0.799744420734,right,0.75022458584785,0.5589432830278516,2,0,0
106,shift,shape,left,1,0,0.655857740963,right,0.8586986987946875,0.4525201651983718,6.4,0,0
106,shift,shape,left,0,1,1.22389212428,left,0.8586986987946875,0.4525201651983718,6.4,0,0
106,shift,shape,right,0,1,0.743766371826,right,0.8586986987946875,0.4525201651983718,6.4,0,0
106,shift,shape,left,0,1,0.591876990234,left,0.8586986987946875,0.4525201651983718,6.4,0,0
106,shift,color,left,1,0,0.503802199797,right,0.8586986987946875,0.4525201651983718,6.4,0,0
106,shift,color,right,0,1,1.11180922838,right,0.8586986987946875,0.4525201651983718,6.4,0,0
106,shift,color,left,0,1,0.7197549612,left,0.8586986987946875,0.4525201651983718,6.4,0,0
106,shift,shape,right,1,1,0.623934370273,right,0.8586986987946875,0.4525201651983718,6.4,0,0
106,shift,color,left,1,1,0.655741158838,left,0.8586986987946875,0.4525201651983718,6.4,0,0
106,shift,color,left,0,1,0.567892621854,left,0.8586986987946875,0.4525201651983718,6.4,0,0
106,shift,shape,left,1,0,0.407764069029,right,0.8586986987946875,0.4525201651983718,6.4,0,0
106,shift,color,left,1,1,0.735862223966,left,0.8586986987946875,0.4525201651983718,6.4,0,0
106,shift,color,right,0,1,0.735784702863,right,0.8586986987946875,0.4525201651983718,6.4,0,0
106,shift,color,left,0,1,0.551826222925,left,0.8586986987946875,0.4525201651983718,6.4,0,0
106,shift,color,right,0,1,0.487804908829,right,0.8586986987946875,0.4525201651983718,6.4,0,0
106,shift,shape,right,1,1,0.56784514769,right,0.8586986987946875,0.4525201651983718,6.4,0,0
106,shift,shape,left,0,1,0.767779885738,left,0.8586986987946875,0.4525201651983718,6.4,0,0
106,shift,shape,left,0,1,0.575909445736,left,0.8586986987946875,0.4525201651983718,6.4,0,0
106,shift,color,right,1,1,0.455768862116,right,0.8586986987946875,0.4525201651983718,6.4,0,0
106,shift,shape,right,1,1,0.735845097211,right,0.8586986987946875,0.4525201651983718,6.4,0,0
106,shift,shape,right,0,1,0.551923575009,right,0.8586986987946875,0.4525201651983718,6.4,0,0
106,shift,color,left,1,1,0.40768895168,left,0.8586986987946875,0.4525201651983718,6.4,0,0
106,shift,shape,right,1,1,1.04788676871,right,0.8586986987946875,0.4525201651983718,6.4,0,0
106,shift,color,right,1,1,0.6718258864,right,0.8586986987946875,0.4525201651983718,6.4,0,0
106,shift,color,left,0,1,0.591727356476,left,0.8586986987946875,0.4525201651983718,6.4,0,0
106,shift,shape,right,1,1,0.655875769126,right,0.8586986987946875,0.4525201651983718,6.4,0,0
106,shift,color,left,1,1,1.10385880823,left,0.8586986987946875,0.4525201651983718,6.4,0,0
106,shift,shape,left,1,1,0.71178651289,left,0.8586986987946875,0.4525201651983718,6.4,0,0
106,shift,color,right,1,1,1.87183423945,right,0.8586986987946875,0.4525201651983718,6.4,0,0
106,shift,color,left,0,1,0.847840856987,left,0.8586986987946875,0.4525201651983718,6.4,0,0
106,shift,color,left,0,1,1.91968699502,left,0.8586986987946875,0.4525201651983718,6.4,0,0
106,shift,shape,right,1,1,3.1598587914,right,0.8586986987946875,0.4525201651983718,6.4,1,0
106,shift,shape,left,0,1,1.64786765886,left,0.8586986987946875,0.4525201651983718,6.4,0,0
106,shift,shape,right,0,1,0.975763898362,right,0.8586986987946875,0.4525201651983718,6.4,0,0
106,shift,color,left,1,1,0.879882011679,left,0.8586986987946875,0.4525201651983718,6.4,0,0
106,shift,shape,left,1,1,1.23984164061,left,0.8586986987946875,0.4525201651983718,6.4,0,0
106,shift,shape,right,0,1,0.631804264622,right,0.8586986987946875,0.4525201651983718,6.4,0,0
106,shift,color,right,1,1,0.887897633683,right,0.8586986987946875,0.4525201651983718,6.4,0,0
106,shift,shape,right,1,1,0.743831874154,right,0.8586986987946875,0.4525201651983718,6.4,0,0
106,shift,shape,left,0,1,0.583843340066,left,0.8586986987946875,0.4525201651983718,6.4,0,0
106,shift,shape,left,0,0,0.911733570183,right,0.8586986987946875,0.4525201651983718,6.4,0,0
106,shift,shape,right,0,1,1.2639476991,right,0.8586986987946875,0.4525201651983718,6.4,0,0
106,shift,color,right,1,1,0.527775450809,right,0.8586986987946875,0.4525201651983718,6.4,0,0
106,shift,color,right,0,1,0.65574536541,right,0.8586986987946875,0.4525201651983718,6.4,0,0
106,shift,color,left,0,1,1.27188519906,left,0.8586986987946875,0.4525201651983718,6.4,0,0
106,shift,shape,left,1,1,1.3838518133,left,0.8586986987946875,0.4525201651983718,6.4,0,0
106,shift,shape,right,0,1,1.19184105409,right,0.8586986987946875,0.4525201651983718,6.4,0,0
106,shift,color,right,1,1,0.407826867132,right,0.8586986987946875,0.4525201651983718,6.4,0,0
106,shift,color,right,0,1,0.559829225216,right,0.8586986987946875,0.4525201651983718,6.4,0,0
106,shift,color,right,0,1,0.767754646308,right,0.8586986987946875,0.4525201651983718,6.4,0,0
106,shift,shape,left,1,1,1.06384109255,left,0.8586986987946875,0.4525201651983718,6.4,0,0
106,shift,shape,left,0,1,0.495766446343,left,0.8586986987946875,0.4525201651983718,6.4,0,0
106,shift,shape,right,0,1,0.671769698623,right,0.8586986987946875,0.4525201651983718,6.4,0,0
106,shift,color,right,1,1,0.567832527975,right,0.8586986987946875,0.4525201651983718,6.4,0,0
106,shift,color,right,0,1,0.58389562174,right,0.8586986987946875,0.4525201651983718,6.4,0,0
106,shift,color,left,0,1,0.607833417365,left,0.8586986987946875,0.4525201651983718,6.4,0,0
106,shift,color,left,0,1,0.415767071319,left,0.8586986987946875,0.4525201651983718,6.4,0,0
106,shift,shape,right,1,1,0.855874507155,right,0.8586986987946875,0.4525201651983718,6.4,0,0
106,shift,color,right,1,1,1.29581728576,right,0.8586986987946875,0.4525201651983718,6.4,0,0
106,shift,color,left,0,1,0.79175343722,left,0.8586986987946875,0.4525201651983718,6.4,0,0
106,shift,shape,right,1,1,0.655840614208,right,0.8586986987946875,0.4525201651983718,6.4,0,0
106,shift,shape,left,0,1,1.43981063217,left,0.8586986987946875,0.4525201651983718,6.4,0,0
106,shift,color,right,1,1,0.807921995742,right,0.8586986987946875,0.4525201651983718,6.4,0,0
106,shift,shape,left,1,1,1.20775631692,left,0.8586986987946875,0.4525201651983718,6.4,0,0
109,shape,shape,left,0,1,0.851481749344,left,0.5260165101873,0.12848609619632514,2,0,0
109,shape,shape,left,0,1,0.607812862911,left,0.5260165101873,0.12848609619632514,2,0,0
109,shape,shape,right,0,1,0.607837200924,right,0.5260165101873,0.12848609619632514,2,0,0
109,shape,shape,right,0,1,0.535849262964,right,0.5260165101873,0.12848609619632514,2,0,0
109,shape,shape,right,0,1,0.439875761953,right,0.5260165101873,0.12848609619632514,2,0,0
109,shape,shape,right,0,1,0.431790133009,right,0.5260165101873,0.12848609619632514,2,0,0
109,shape,shape,left,0,1,0.391845743867,left,0.5260165101873,0.12848609619632514,2,0,0
109,shape,shape,right,0,1,0.551794267466,right,0.5260165101873,0.12848609619632514,2,0,0
109,shape,shape,right,0,1,0.471892569004,right,0.5260165101873,0.12848609619632514,2,0,0
109,shape,shape,right,0,1,0.455841498837,right,0.5260165101873,0.12848609619632514,2,0,0
109,shape,shape,right,0,1,0.527816817087,right,0.5260165101873,0.12848609619632514,2,0,0
109,shape,shape,right,0,1,0.575816487772,right,0.5260165101873,0.12848609619632514,2,0,0
109,shape,shape,left,0,1,0.823882141517,left,0.5260165101873,0.12848609619632514,2,0,0
109,shape,shape,right,0,1,0.543836037507,right,0.5260165101873,0.12848609619632514,2,0,0
109,shape,shape,left,0,1,0.567820999619,left,0.5260165101873,0.12848609619632514,2,0,0
109,shape,shape,left,0,1,0.46379822645,left,0.5260165101873,0.12848609619632514,2,0,0
109,shape,shape,left,0,1,0.463861325004,left,0.5260165101873,0.12848609619632514,2,0,0
109,shape,shape,left,0,1,0.447824376894,left,0.5260165101873,0.12848609619632514,2,0,0
109,shape,shape,left,0,1,0.407865264757,left,0.5260165101873,0.12848609619632514,2,0,0
109,shape,shape,left,0,1,0.35178747686,left,0.5260165101873,0.12848609619632514,2,0,0
109,color,color,right,0,1,0.687853678661,right,0.436236943482,0.09323540241276873,2,0,0
109,color,color,left,0,1,0.503832455913,left,0.436236943482,0.09323540241276873,2,0,0
109,color,color,right,0,1,0.351925692739,right,0.436236943482,0.09323540241276873,2,0,0
109,color,color,left,0,1,0.527765737305,left,0.436236943482,0.09323540241276873,2,0,0
109,color,color,right,0,1,0.375840044566,right,0.436236943482,0.09323540241276873,2,0,0
109,color,color,left,0,1,0.383849955245,left,0.436236943482,0.09323540241276873,2,0,0
109,color,color,right,0,1,0.367819617461,right,0.436236943482,0.09323540241276873,2,0,0
109,color,color,left,0,1,0.567832417453,left,0.436236943482,0.09323540241276873,2,0,0
109,color,color,left,0,1,0.487844784769,left,0.436236943482,0.09323540241276873,2,0,0
109,color,color,left,0,1,0.487858305888,left,0.436236943482,0.09323540241276873,2,0,0
109,color,color,right,0,1,0.49581954054,right,0.436236943482,0.09323540241276873,2,0,0
109,color,color,right,0,1,0.319835571179,right,0.436236943482,0.09323540241276873,2,0,0
109,color,color,left,0,1,0.351846969782,left,0.436236943482,0.09323540241276873,2,0,0
109,color,color,right,0,1,0.407808175589,right,0.436236943482,0.09323540241276873,2,0,0
109,color,color,right,0,1,0.367822021215,right,0.436236943482,0.09323540241276873,2,0,0
109,color,color,left,0,1,0.479848996147,left,0.436236943482,0.09323540241276873,2,0,0
109,color,color,left,0,1,0.359929594033,left,0.436236943482,0.09323540241276873,2,0,0
109,color,color,left,0,1,0.335766754093,left,0.436236943482,0.09323540241276873,2,0,0
109,color,color,right,0,1,0.415829203633,right,0.436236943482,0.09323540241276873,2,0,0
109,color,color,right,0,1,0.447809353429,right,0.436236943482,0.09323540241276873,2,0,0
109,shift,shape,right,1,1,0.743866865657,right,0.7408368533936406,0.4710858887888229,6.4,0,0
109,shift,color,right,1,1,0.399835823573,right,0.7408368533936406,0.4710858887888229,6.4,0,0
109,shift,shape,right,1,1,0.471862822543,right,0.7408368533936406,0.4710858887888229,6.4,0,0
109,shift,color,left,1,1,0.503822239957,left,0.7408368533936406,0.4710858887888229,6.4,0,0
109,shift,color,right,0,1,0.455845404938,right,0.7408368533936406,0.4710858887888229,6.4,0,0
109,shift,shape,right,1,0,0.567804774277,left,0.7408368533936406,0.4710858887888229,6.4,0,0
109,shift,color,right,1,1,0.631866031555,right,0.7408368533936406,0.4710858887888229,6.4,0,0
109,shift,shape,left,1,1,1.02386279129,left,0.7408368533936406,0.4710858887888229,6.4,0,0
109,shift,shape,left,0,1,0.495851390286,left,0.7408368533936406,0.4710858887888229,6.4,0,0
109,shift,shape,right,0,1,0.495805718952,right,0.7408368533936406,0.4710858887888229,6.4,0,0
109,shift,shape,right,0,1,0.455768484796,right,0.7408368533936406,0.4710858887888229,6.4,0,0
109,shift,color,right,1,1,0.91986345473,right,0.7408368533936406,0.4710858887888229,6.4,0,0
109,shift,color,left,0,1,0.711820011676,left,0.7408368533936406,0.4710858887888229,6.4,0,0
109,shift,color,right,0,1,0.703915265253,right,0.7408368533936406,0.4710858887888229,6.4,0,0
109,shift,shape,left,1,1,0.599753975735,left,0.7408368533936406,0.4710858887888229,6.4,0,0
109,shift,color,right,1,1,0.511866704606,right,0.7408368533936406,0.4710858887888229,6.4,0,0
109,shift,color,left,0,1,0.495861305773,left,0.7408368533936406,0.4710858887888229,6.4,0,0
109,shift,color,left,0,1,0.415815982984,left,0.7408368533936406,0.4710858887888229,6.4,0,0
109,shift,shape,left,1,1,0.511952638827,left,0.7408368533936406,0.4710858887888229,6.4,0,0
109,shift,shape,right,0,1,0.439691874739,right,0.7408368533936406,0.4710858887888229,6.4,0,0
109,shift,color,left,1,1,0.391913950399,left,0.7408368533936406,0.4710858887888229,6.4,0,0
109,shift,color,right,0,1,0.327809726011,right,0.7408368533936406,0.4710858887888229,6.4,0,0
109,shift,shape,right,1,1,0.583859750544,right,0.7408368533936406,0.4710858887888229,6.4,0,0
109,shift,shape,left,0,1,0.751863555688,left,0.7408368533936406,0.4710858887888229,6.4,0,0
109,shift,shape,right,0,1,0.511826441719,right,0.7408368533936406,0.4710858887888229,6.4,0,0
109,shift,color,left,1,1,0.559798769698,left,0.7408368533936406,0.4710858887888229,6.4,0,0
109,shift,shape,left,1,1,1.31179381075,left,0.7408368533936406,0.4710858887888229,6.4,0,0
109,shift,color,right,1,1,1.26387496631,right,0.7408368533936406,0.4710858887888229,6.4,0,0
109,shift,shape,left,1,1,0.543799380252,left,0.7408368533936406,0.4710858887888229,6.4,0,0
109,shift,shape,right,0,1,0.359869800642,right,0.7408368533936406,0.4710858887888229,6.4,0,0
109,shift,shape,left,0,1,0.391811790836,left,0.7408368533936406,0.4710858887888229,6.4,0,0
109,shift,color,left,1,0,0.791834386128,right,0.7408368533936406,0.4710858887888229,6.4,0,0
109,shift,color,right,0,1,0.43186705315,right,0.7408368533936406,0.4710858887888229,6.4,0,0
109,shift,color,right,0,1,0.703818514137,right,0.7408368533936406,0.4710858887888229,6.4,0,0
109,shift,color,left,0,1,0.99983966958,left,0.7408368533936406,0.4710858887888229,6.4,0,0
109,shift,shape,left,1,1,0.52031019249,left,0.7408368533936406,0.4710858887888229,6.4,0,0
109,shift,shape,right,0,1,0.455394700983,right,0.7408368533936406,0.4710858887888229,6.4,0,0
109,shift,color,left,1,1,0.351779965128,left,0.7408368533936406,0.4710858887888229,6.4,0,0
109,shift,color,right,0,1,0.351849073067,right,0.7408368533936406,0.4710858887888229,6.4,0,0
109,shift,shape,left,1,1,0.719786354307,left,0.7408368533936406,0.4710858887888229,6.4,0,0
109,shift,color,right,1,1,0.711813401352,right,0.7408368533936406,0.4710858887888229,6.4,0,0
109,shift,color,left,0,1,0.455859827465,left,0.7408368533936406,0.4710858887888229,6.4,0,0
109,shift,color,left,0,1,0.327846082797,left,0.7408368533936406,0.4710858887888229,6.4,0,0
109,shift,color,left,0,1,2.40783972487,left,0.7408368533936406,0.4710858887888229,6.4,1,0
109,shift,shape,left,1,1,0.735828410394,left,0.7408368533936406,0.4710858887888229,6.4,0,0
109,shift,color,left,1,1,1.38383883788,left,0.7408368533936406,0.4710858887888229,6.4,0,0
109,shift,shape,right,1,1,0.671838364341,right,0.7408368533936406,0.4710858887888229,6.4,0,0
109,shift,color,right,1,1,0.519905760808,right,0.7408368533936406,0.4710858887888229,6.4,0,0
109,shift,shape,right,1,1,0.527786169218,right,0.7408368533936406,0.4710858887888229,6.4,0,0
109,shift,shape,left,0,1,1.09587506727,left,0.7408368533936406,0.4710858887888229,6.4,0,0
109,shift,shape,right,0,1,1.33579620008,right,0.7408368533936406,0.4710858887888229,6.4,0,0
109,shift,color,left,1,1,1.13592071456,left,0.7408368533936406,0.4710858887888229,6.4,0,0
109,shift,color,left,0,1,1.19979477947,left,0.7408368533936406,0.4710858887888229,6.4,0,0
109,shift,shape,left,1,0,0.663815233012,right,0.7408368533936406,0.4710858887888229,6.4,0,0
109,shift,color,right,1,1,0.703789669084,right,0.7408368533936406,0.4710858887888229,6.4,0,0
109,shift,color,left,0,1,0.463875146591,left,0.7408368533936406,0.4710858887888229,6.4,0,0
109,shift,color,right,0,1,1.03181200717,right,0.7408368533936406,0.4710858887888229,6.4,0,0
109,shift,shape,left,1,1,0.927835205808,left,0.7408368533936406,0.4710858887888229,6.4,0,0
109,shift,shape,left,0,1,2.29578811145,left,0.7408368533936406,0.4710858887888229,6.4,1,0
109,shift,color,right,1,1,2.67184347232,right,0.7408368533936406,0.4710858887888229,6.4,1,0
109,shift,shape,left,1,1,0.895864971499,left,0.7408368533936406,0.4710858887888229,6.4,0,0
109,shift,shape,right,0,1,0.46377659266,right,0.7408368533936406,0.4710858887888229,6.4,0,0
109,shift,shape,right,0,1,0.439958090542,right,0.7408368533936406,0.4710858887888229,6.4,0,0
109,shift,shape,right,0,1,0.463821362586,right,0.7408368533936406,0.4710858887888229,6.4,0,0
110,color,color,left,0,1,0.556109994534,left,0.48403210933225,0.11114063286664043,2,0,0
110,color,color,left,0,1,0.455851561042,left,0.48403210933225,0.11114063286664043,2,0,0
110,color,color,right,0,1,0.36775161059,right,0.48403210933225,0.11114063286664043,2,0,0
110,color,color,left,0,1,0.463899626487,left,0.48403210933225,0.11114063286664043,2,0,0
110,color,color,left,0,1,0.455757814676,left,0.48403210933225,0.11114063286664043,2,0,0
110,color,color,left,0,1,0.407849515448,left,0.48403210933225,0.11114063286664043,2,0,0
110,color,color,left,0,1,0.407789421624,left,0.48403210933225,0.11114063286664043,2,0,0
110,color,color,right,0,1,0.399857337261,right,0.48403210933225,0.11114063286664043,2,0,0
110,color,color,right,0,1,0.439870810296,right,0.48403210933225,0.11114063286664043,2,0,0
110,color,color,left,0,1,0.407774999106,left,0.48403210933225,0.11114063286664043,2,0,0
110,color,color,right,0,1,0.407759675181,right,0.48403210933225,0.11114063286664043,2,0,0
110,color,color,left,0,1,0.591884148721,left,0.48403210933225,0.11114063286664043,2,0,0
110,color,color,right,0,1,0.463795363701,right,0.48403210933225,0.11114063286664043,2,0,0
110,color,color,right,0,1,0.863784066062,right,0.48403210933225,0.11114063286664043,2,1,0
110,color,color,right,0,1,0.559849933702,right,0.48403210933225,0.11114063286664043,2,0,0
110,color,color,right,0,1,0.503665813434,right,0.48403210933225,0.11114063286664043,2,0,0
110,color,color,left,0,1,0.543904938781,left,0.48403210933225,0.11114063286664043,2,0,0
110,color,color,left,0,1,0.463813391849,left,0.48403210933225,0.11114063286664043,2,0,0
110,color,color,right,0,1,0.375750098629,right,0.48403210933225,0.11114063286664043,2,0,0
110,color,color,right,0,1,0.543922065521,right,0.48403210933225,0.11114063286664043,2,0,0
110,shape,shape,right,0,1,0.951863284146,right,0.86459997494045,0.3889010715559823,2,0,0
110,shape,shape,right,0,1,0.511823550109,right,0.86459997494045,0.3889010715559823,2,0,0
110,shape,shape,left,0,1,1.10379669778,left,0.86459997494045,0.3889010715559823,2,0,0
110,shape,shape,right,0,1,0.639579114872,right,0.86459997494045,0.3889010715559823,2,0,0
110,shape,shape,left,0,1,0.63985374365,left,0.86459997494045,0.3889010715559823,2,0,0
110,shape,shape,right,0,1,0.45558173977,right,0.86459997494045,0.3889010715559823,2,0,0
110,shape,shape,left,0,1,0.631873584227,left,0.86459997494045,0.3889010715559823,2,0,0
110,shape,shape,left,0,1,0.695778258595,left,0.86459997494045,0.3889010715559823,2,0,0
110,shape,shape,right,0,1,0.64782789369,right,0.86459997494045,0.3889010715559823,2,0,0
110,shape,shape,right,0,0,0.599975181251,left,0.86459997494045,0.3889010715559823,2,0,0
110,shape,shape,left,0,1,0.703756014265,left,0.86459997494045,0.3889010715559823,2,0,0
110,shape,shape,left,0,1,1.65576117993,left,0.86459997494045,0.3889010715559823,2,0,0
110,shape,shape,right,0,1,1.03985957275,right,0.86459997494045,0.3889010715559823,2,0,0
110,shape,shape,right,0,1,1.06384962842,right,0.86459997494045,0.3889010715559823,2,0,0
110,shape,shape,left,0,1,0.959874391888,left,0.86459997494045,0.3889010715559823,2,0,0
110,shape,shape,left,0,1,0.6717202969,left,0.86459997494045,0.3889010715559823,2,0,0
110,shape,shape,left,0,1,0.895784328071,left,0.86459997494045,0.3889010715559823,2,0,0
110,shape,shape,right,0,1,0.543793164267,right,0.86459997494045,0.3889010715559823,2,0,0
110,shape,shape,right,0,0,0.855838460588,left,0.86459997494045,0.3889010715559823,2,0,0
110,shape,shape,left,0,1,2.02380941364,left,0.86459997494045,0.3889010715559823,2,0,0
110,shift,color,right,1,1,0.83984148451,right,0.7935541035217344,0.41460312524071824,6.4,0,0
110,shift,color,left,0,1,0.679738615901,left,0.7935541035217344,0.41460312524071824,6.4,0,0
110,shift,shape,right,1,1,2.47188008638,right,0.7935541035217344,0.41460312524071824,6.4,1,0
110,shift,shape,right,0,1,0.967821199238,right,0.7935541035217344,0.41460312524071824,6.4,0,0
110,shift,color,left,1,1,1.11974920443,left,0.7935541035217344,0.41460312524071824,6.4,0,0
110,shift,color,right,0,1,0.447866594113,right,0.7935541035217344,0.41460312524071824,6.4,0,0
110,shift,shape,right,1,1,0.599827951381,right,0.7935541035217344,0.41460312524071824,6.4,0,0
110,shift,color,right,1,1,0.407824576511,right,0.7935541035217344,0.41460312524071824,6.4,0,0
110,shift,shape,right,1,1,1.0238622962,right,0.7935541035217344,0.41460312524071824,6.4,0,0
110,shift,shape,right,0,1,0.551772422283,right,0.7935541035217344,0.41460312524071824,6.4,0,0
110,shift,shape,right,0,1,0.503877343697,right,0.7935541035217344,0.41460312524071824,6.4,0,0
110,shift,color,left,1,1,0.727779422012,left,0.7935541035217344,0.41460312524071824,6.4,0,0
110,shift,shape,left,1,1,1.24777248718,left,0.7935541035217344,0.41460312524071824,6.4,0,0
110,shift,color,right,1,1,0.519860798665,right,0.7935541035217344,0.41460312524071824,6.4,0,0
110,shift,shape,right,1,1,0.471856048849,right,0.7935541035217344,0.41460312524071824,6.4,0,0
110,shift,shape,left,0,1,1.17576686481,left,0.7935541035217344,0.41460312524071824,6.4,0,0
110,shift,shape,right,0,1,1.33583638134,right,0.7935541035217344,0.41460312524071824,6.4,0,0
110,shift,shape,left,0,1,0.791781147906,left,0.7935541035217344,0.41460312524071824,6.4,0,0
110,shift,color,right,1,1,1.22404293824,right,0.7935541035217344,0.41460312524071824,6.4,0,0
110,shift,color,right,0,1,1.28763782894,right,0.7935541035217344,0.41460312524071824,6.4,0,0
110,shift,shape,left,1,1,0.551801567788,left,0.7935541035217344,0.41460312524071824,6.4,0,0
110,shift,shape,left,0,1,0.591619134955,left,0.7935541035217344,0.41460312524071824,6.4,0,0
110,shift,shape,left,0,1,0.855852582637,left,0.7935541035217344,0.41460312524071824,6.4,0,0
110,shift,color,right,1,1,0.399733243513,right,0.7935541035217344,0.41460312524071824,6.4,0,0
110,shift,shape,right,1,1,0.431930613267,right,0.7935541035217344,0.41460312524071824,6.4,0,0
110,shift,color,right,1,1,0.535508028685,right,0.7935541035217344,0.41460312524071824,6.4,0,0
110,shift,color,right,0,1,1.15985402008,right,0.7935541035217344,0.41460312524071824,6.4,0,0
110,shift,color,left,0,1,0.615850767804,left,0.7935541035217344,0.41460312524071824,6.4,0,0
110,shift,shape,left,1,1,0.607882326677,left,0.7935541035217344,0.41460312524071824,6.4,0,0
110,shift,color,right,1,1,0.567603238937,right,0.7935541035217344,0.41460312524071824,6.4,0,0
110,shift,shape,left,1,1,0.759777881206,left,0.7935541035217344,0.41460312524071824,6.4,0,0
110,shift,color,left,1,1,1.15972662117,left,0.7935541035217344,0.41460312524071824,6.4,0,0
110,shift,color,left,0,1,1.37592857729,left,0.7935541035217344,0.41460312524071824,6.4,0,0
110,shift,shape,left,1,1,1.39172754421,left,0.7935541035217344,0.41460312524071824,6.4,0,0
110,shift,shape,right,0,1,0.455871091535,right,0.7935541035217344,0.41460312524071824,6.4,0,0
110,shift,color,right,1,1,0.479850931259,right,0.7935541035217344,0.41460312524071824,6.4,0,0
110,shift,shape,right,1,1,0.463822405922,right,0.7935541035217344,0.41460312524071824,6.4,0,0
110,shift,color,left,1,1,0.76773370263,left,0.7935541035217344,0.41460312524071824,6.4,0,0
110,shift,color,left,0,1,0.463890011475,left,0.7935541035217344,0.41460312524071824,6.4,0,0
110,shift,shape,left,1,1,0.50371539084,left,0.7935541035217344,0.41460312524071824,6.4,0,0
110,shift,shape,right,0,1,0.439986190439,right,0.7935541035217344,0.41460312524071824,6.4,0,0
110,shift,shape,left,0,1,0.511752939865,left,0.7935541035217344,0.41460312524071824,6.4,0,0
110,shift,color,right,1,1,0.607769951225,right,0.7935541035217344,0.41460312524071824,6.4,0,0
110,shift,shape,right,1,1,0.671900578373,right,0.7935541035217344,0.41460312524071824,6.4,0,0
110,shift,color,left,1,1,0.639741067729,left,0.7935541035217344,0.41460312524071824,6.4,0,0
110,shift,color,right,0,1,0.471836818825,right,0.7935541035217344,0.41460312524071824,6.4,0,0
110,shift,color,left,0,1,0.687897253983,left,0.7935541035217344,0.41460312524071824,6.4,0,0
110,shift,shape,right,1,1,0.615817115262,right,0.7935541035217344,0.41460312524071824,6.4,0,0
110,shift,shape,left,0,1,0.567598431431,left,0.7935541035217344,0.41460312524071824,6.4,0,0
110,shift,color,left,1,1,0.711851553831,left,0.7935541035217344,0.41460312524071824,6.4,0,0
110,shift,color,left,0,1,0.767806716627,left,0.7935541035217344,0.41460312524071824,6.4,0,0
110,shift,shape,left,1,1,1.14387086558,left,0.7935541035217344,0.41460312524071824,6.4,0,0
110,shift,shape,right,0,1,1.37588801396,right,0.7935541035217344,0.41460312524071824,6.4,0,0
110,shift,color,right,1,1,1.3678216199,right,0.7935541035217344,0.41460312524071824,6.4,0,0
110,shift,color,left,0,1,1.49571389811,left,0.7935541035217344,0.41460312524071824,6.4,0,0
110,shift,color,left,0,1,0.463910743844,left,0.7935541035217344,0.41460312524071824,6.4,0,0
110,shift,shape,left,1,1,0.55177332369,left,0.7935541035217344,0.41460312524071824,6.4,0,0
110,shift,color,right,1,1,0.399830895978,right,0.7935541035217344,0.41460312524071824,6.4,0,0
110,shift,color,right,0,1,0.375879300352,right,0.7935541035217344,0.41460312524071824,6.4,0,0
110,shift,color,left,0,1,0.39172934703,left,0.7935541035217344,0.41460312524071824,6.4,0,0
110,shift,shape,left,1,1,0.519836160197,left,0.7935541035217344,0.41460312524071824,6.4,0,0
110,shift,color,left,1,1,0.463804678244,left,0.7935541035217344,0.41460312524071824,6.4,0,0
110,shift,shape,left,1,1,1.96757842019,left,0.7935541035217344,0.41460312524071824,6.4,0,0
110,shift,shape,right,0,1,1.03979136626,right,0.7935541035217344,0.41460312524071824,6.4,0,0
111,color,color,left,0,1,0.503905743897,left,0.43103611824565,0.07278101074065646,2,0,0
111,color,color,right,0,1,0.383806552881,right,0.43103611824565,0.07278101074065646,2,0,0
111,color,color,left,0,1,0.367856426023,left,0.43103611824565,0.07278101074065646,2,0,0
111,color,color,left,0,1,0.383832693734,left,0.43103611824565,0.07278101074065646,2,0,0
111,color,color,right,0,1,0.375885573975,right,0.43103611824565,0.07278101074065646,2,0,0
111,color,color,left,0,1,0.367807149013,left,0.43103611824565,0.07278101074065646,2,0,0
111,color,color,right,0,1,0.471838128627,right,0.43103611824565,0.07278101074065646,2,0,0
111,color,color,right,0,0,0.463808680205,left,0.43103611824565,0.07278101074065646,2,0,0
111,color,color,right,0,1,0.495893121771,right,0.43103611824565,0.07278101074065646,2,0,0
111,color,color,left,0,1,0.383830289977,left,0.43103611824565,0.07278101074065646,2,0,0
111,color,color,right,0,1,0.43976961195,right,0.43103611824565,0.07278101074065646,2,0,0
111,color,color,left,0,1,0.391805653876,left,0.43103611824565,0.07278101074065646,2,0,0
111,color,color,left,0,1,0.431919844333,left,0.43103611824565,0.07278101074065646,2,0,0
111,color,color,right,0,1,0.383839604534,right,0.43103611824565,0.07278101074065646,2,0,0
111,color,color,right,0,1,0.415857041384,right,0.43103611824565,0.07278101074065646,2,0,0
111,color,color,right,0,1,0.503781349493,right,0.43103611824565,0.07278101074065646,2,0,0
111,color,color,left,0,1,0.367744951811,left,0.43103611824565,0.07278101074065646,2,0,0
111,color,color,left,0,1,0.655904888159,left,0.43103611824565,0.07278101074065646,2,1,0
111,color,color,left,0,1,0.471808682609,left,0.43103611824565,0.07278101074065646,2,0,0
111,color,color,right,0,1,0.359826376661,right,0.43103611824565,0.07278101074065646,2,0,0
111,shape,shape,left,0,0,0.423833006222,right,0.52383560528415,0.1482422680696961,2,0,0
111,shape,shape,right,0,0,0.447876581522,left,0.52383560528415,0.1482422680696961,2,0,0
111,shape,shape,left,0,0,0.527782258113,right,0.52383560528415,0.1482422680696961,2,0,0
111,shape,shape,right,0,1,0.623864916091,right,0.52383560528415,0.1482422680696961,2,0,0
111,shape,shape,right,0,1,0.55990065274,right,0.52383560528415,0.1482422680696961,2,0,0
111,shape,shape,left,0,1,0.511810797915,left,0.52383560528415,0.1482422680696961,2,0,0
111,shape,shape,right,0,1,0.463803271753,right,0.52383560528415,0.1482422680696961,2,0,0
111,shape,shape,left,0,1,0.543854075149,left,0.52383560528415,0.1482422680696961,2,0,0
111,shape,shape,right,0,1,0.495834229734,right,0.52383560528415,0.1482422680696961,2,0,0
111,shape,shape,right,0,1,0.503902739201,right,0.52383560528415,0.1482422680696961,2,0,0
111,shape,shape,left,0,1,0.495801478551,left,0.52383560528415,0.1482422680696961,2,0,0
111,shape,shape,right,0,1,0.455807175454,right,0.52383560528415,0.1482422680696961,2,0,0
111,shape,shape,left,0,1,0.415814975644,left,0.52383560528415,0.1482422680696961,2,0,0
111,shape,shape,right,0,1,0.431944482838,right,0.52383560528415,0.1482422680696961,2,0,0
111,shape,shape,left,0,1,0.535727274585,left,0.52383560528415,0.1482422680696961,2,0,0
111,shape,shape,left,0,1,0.383860336935,left,0.52383560528415,0.1482422680696961,2,0,0
111,shape,shape,left,0,0,0.423800255039,right,0.52383560528415,0.1482422680696961,2,0,0
111,shape,shape,left,0,0,0.511843549099,right,0.52383560528415,0.1482422680696961,2,0,0
111,shape,shape,right,0,1,0.631869726008,right,0.52383560528415,0.1482422680696961,2,0,0
111,shape,shape,right,0,1,1.08778032309,right,0.52383560528415,0.1482422680696961,2,1,0
111,shift,color,left,1,1,0.47991625312,left,0.7943362818661562,0.43004122875325923,6.4,0,0
111,shift,color,right,0,1,0.479824309431,right,0.7943362818661562,0.43004122875325923,6.4,0,0
111,shift,shape,left,1,0,0.431809571999,right,0.7943362818661562,0.43004122875325923,6.4,0,0
111,shift,shape,right,0,1,0.599791894773,right,0.7943362818661562,0.43004122875325923,6.4,0,0
111,shift,shape,right,0,1,0.6078459817,right,0.7943362818661562,0.43004122875325923,6.4,0,0
111,shift,color,right,1,1,1.0479143205,right,0.7943362818661562,0.43004122875325923,6.4,0,0
111,shift,shape,left,1,1,1.65580062522,left,0.7943362818661562,0.43004122875325923,6.4,0,0
111,shift,shape,left,0,1,0.975776984271,left,0.7943362818661562,0.43004122875325923,6.4,0,0
111,shift,color,left,1,1,0.767890799742,left,0.7943362818661562,0.43004122875325923,6.4,0,0
111,shift,color,right,0,1,0.687829479911,right,0.7943362818661562,0.43004122875325923,6.4,0,0
111,shift,shape,left,1,0,0.479798469047,right,0.7943362818661562,0.43004122875325923,6.4,0,0
111,shift,color,right,1,1,0.527853469402,right,0.7943362818661562,0.43004122875325923,6.4,0,0
111,shift,color,left,0,1,1.25578998859,left,0.7943362818661562,0.43004122875325923,6.4,0,0
111,shift,shape,right,1,1,0.999937742704,right,0.7943362818661562,0.43004122875325923,6.4,0,0
111,shift,color,left,1,0,1.43985284202,right,0.7943362818661562,0.43004122875325923,6.4,0,0
111,shift,shape,right,1,1,1.62380572358,right,0.7943362818661562,0.43004122875325923,6.4,0,0
111,shift,shape,left,0,1,0.447805370233,left,0.7943362818661562,0.43004122875325923,6.4,0,0
111,shift,color,right,1,1,0.391824583459,right,0.7943362818661562,0.43004122875325923,6.4,0,0
111,shift,color,right,0,1,0.45587327876,right,0.7943362818661562,0.43004122875325923,6.4,0,0
111,shift,shape,right,1,1,0.799745682553,right,0.7943362818661562,0.43004122875325923,6.4,0,0
111,shift,shape,right,0,1,0.479929774251,right,0.7943362818661562,0.43004122875325923,6.4,0,0
111,shift,color,left,1,1,0.479771426786,left,0.7943362818661562,0.43004122875325923,6.4,0,0
111,shift,shape,left,1,1,0.479896722598,left,0.7943362818661562,0.43004122875325923,6.4,0,0
111,shift,shape,left,0,1,1.51984204915,left,0.7943362818661562,0.43004122875325923,6.4,0,0
111,shift,color,left,1,1,0.495821910482,left,0.7943362818661562,0.43004122875325923,6.4,0,0
111,shift,color,right,0,0,0.66380122856,left,0.7943362818661562,0.43004122875325923,6.4,0,0
111,shift,color,left,0,1,1.43195529974,left,0.7943362818661562,0.43004122875325923,6.4,0,0
111,shift,color,left,0,1,0.623850794021,left,0.7943362818661562,0.43004122875325923,6.4,0,0
111,shift,shape,right,1,1,0.567778063558,right,0.7943362818661562,0.43004122875325923,6.4,0,0
111,shift,color,left,1,1,0.367790022247,left,0.7943362818661562,0.43004122875325923,6.4,0,0
111,shift,color,right,0,1,0.32785911823,right,0.7943362818661562,0.43004122875325923,6.4,0,0
111,shift,color,left,0,1,0.383796637385,left,0.7943362818661562,0.43004122875325923,6.4,0,0
111,shift,shape,right,1,1,0.471860964315,right,0.7943362818661562,0.43004122875325923,6.4,0,0
111,shift,shape,left,0,1,0.911831049564,left,0.7943362818661562,0.43004122875325923,6.4,0,0
111,shift,shape,left,0,1,0.543865492992,left,0.7943362818661562,0.43004122875325923,6.4,0,0
111,shift,color,right,1,1,0.479847145118,right,0.7943362818661562,0.43004122875325923,6.4,0,0
111,shift,shape,left,1,0,0.471841133323,right,0.7943362818661562,0.43004122875325923,6.4,0,0
111,shift,shape,right,0,1,0.62383006162,right,0.7943362818661562,0.43004122875325923,6.4,0,0
111,shift,shape,left,0,1,1.18389182615,left,0.7943362818661562,0.43004122875325923,6.4,0,0
111,shift,color,right,1,1,0.743759787796,right,0.7943362818661562,0.43004122875325923,6.4,0,0
111,shift,color,right,0,0,0.687855320295,left,0.7943362818661562,0.43004122875325923,6.4,0,0
111,shift,color,right,0,1,2.06383800604,right,0.7943362818661562,0.43004122875325923,6.4,0,0
111,shift,shape,left,1,1,0.695812956488,left,0.7943362818661562,0.43004122875325923,6.4,0,0
111,shift,color,left,1,1,1.12782510507,left,0.7943362818661562,0.43004122875325923,6.4,0,0
111,shift,color,right,0,1,1.92784577738,right,0.7943362818661562,0.43004122875325923,6.4,0,0
111,shift,color,right,0,1,0.639773277678,right,0.7943362818661562,0.43004122875325923,6.4,0,0
111,shift,shape,left,1,1,1.78390733038,left,0.7943362818661562,0.43004122875325923,6.4,0,0
111,shift,shape,right,0,1,0.751769104757,right,0.7943362818661562,0.43004122875325923,6.4,0,0
111,shift,shape,right,0,1,0.511836337829,right,0.7943362818661562,0.43004122875325923,6.4,0,0
111,shift,color,left,1,1,0.527839647802,left,0.7943362818661562,0.43004122875325923,6.4,0,0
111,shift,shape,right,1,1,0.791950600398,right,0.7943362818661562,0.43004122875325923,6.4,0,0
111,shift,color,left,1,1,1.12773256045,left,0.7943362818661562,0.43004122875325923,6.4,0,0
111,shift,shape,left,1,1,0.567854983769,left,0.7943362818661562,0.43004122875325923,6.4,0,0
111,shift,color,left,1,1,0.911843669286,left,0.7943362818661562,0.43004122875325923,6.4,0,0
111,shift,shape,right,1,1,0.703847212424,right,0.7943362818661562,0.43004122875325923,6.4,0,0
111,shift,color,left,1,1,0.367791224125,left,0.7943362818661562,0.43004122875325923,6.4,0,0
111,shift,shape,right,1,1,0.519848659485,right,0.7943362818661562,0.43004122875325923,6.4,0,0
111,shift,shape,left,0,1,0.327874442178,left,0.7943362818661562,0.43004122875325923,6.4,0,0
111,shift,color,right,1,1,0.719859836953,right,0.7943362818661562,0.43004122875325923,6.4,0,0
111,shift,color,left,0,1,1.45579275291,left,0.7943362818661562,0.43004122875325923,6.4,0,0
111,shift,color,right,0,1,0.415822186914,right,0.7943362818661562,0.43004122875325923,6.4,0,0
111,shift,shape,left,1,1,0.51185676976,left,0.7943362818661562,0.43004122875325923,6.4,0,0
111,shift,shape,right,0,1,0.855834938842,right,0.7943362818661562,0.43004122875325923,6.4,0,0
111,shift,shape,right,0,1,1.43180145932,right,0.7943362818661562,0.43004122875325923,6.4,0,0
112,color,color,left,0,1,0.5251509,left,0.426096435,0.07970184878071178,2,0,0
112,color,color,right,0,1,0.5517367,right,0.426096435,0.07970184878071178,2,0,0
112,color,color,left,0,1,0.4878813,left,0.426096435,0.07970184878071178,2,0,0
112,color,color,right,0,1,0.4717474,right,0.426096435,0.07970184878071178,2,0,0
112,color,color,left,0,1,0.6159383,left,0.426096435,0.07970184878071178,2,0,0
112,color,color,right,0,1,0.4957981,right,0.426096435,0.07970184878071178,2,0,0
112,color,color,left,0,1,0.4318677,left,0.426096435,0.07970184878071178,2,0,0
112,color,color,right,0,1,0.4238034,right,0.426096435,0.07970184878071178,2,0,0
112,color,color,right,0,1,0.3838849,right,0.426096435,0.07970184878071178,2,0,0
112,color,color,left,0,1,0.295786,left,0.426096435,0.07970184878071178,2,0,0
112,color,color,left,0,1,0.3598176,left,0.426096435,0.07970184878071178,2,0,0
112,color,color,right,0,1,0.3758417,right,0.426096435,0.07970184878071178,2,0,0
112,color,color,left,0,1,0.3598791,left,0.426096435,0.07970184878071178,2,0,0
112,color,color,right,0,1,0.4478064,right,0.426096435,0.07970184878071178,2,0,0
112,color,color,left,0,1,0.3598162,left,0.426096435,0.07970184878071178,2,0,0
112,color,color,left,0,1,0.4478213,left,0.426096435,0.07970184878071178,2,0,0
112,color,color,right,0,1,0.3838238,right,0.426096435,0.07970184878071178,2,0,0
112,color,color,left,0,1,0.3598848,left,0.426096435,0.07970184878071178,2,0,0
112,color,color,right,0,1,0.3917617,right,0.426096435,0.07970184878071178,2,0,0
112,color,color,right,0,1,0.3518814,right,0.426096435,0.07970184878071178,2,0,0
112,shape,shape,right,0,1,0.5278701,right,0.51863822,0.15131031936654865,2,0,0
112,shape,shape,left,0,1,0.3438577,left,0.51863822,0.15131031936654865,2,0,0
112,shape,shape,right,0,0,0.455803,left,0.51863822,0.15131031936654865,2,0,0
112,shape,shape,left,0,0,0.6078509,right,0.51863822,0.15131031936654865,2,0,0
112,shape,shape,left,0,1,1.0318249,left,0.51863822,0.15131031936654865,2,1,0
112,shape,shape,right,0,1,0.5918145,right,0.51863822,0.15131031936654865,2,0,0
112,shape,shape,right,0,1,0.6078191,right,0.51863822,0.15131031936654865,2,0,0
112,shape,shape,left,0,1,0.7199292,left,0.51863822,0.15131031936654865,2,0,0
112,shape,shape,right,0,1,0.527733,right,0.51863822,0.15131031936654865,2,0,0
112,shape,shape,left,0,1,0.4958468,left,0.51863822,0.15131031936654865,2,0,0
112,shape,shape,left,0,1,0.4238647,left,0.51863822,0.15131031936654865,2,0,0
112,shape,shape,left,0,1,0.3518016,left,0.51863822,0.15131031936654865,2,0,0
112,shape,shape,right,0,1,0.5279019,right,0.51863822,0.15131031936654865,2,0,0
112,shape,shape,right,0,1,0.4878494,right,0.51863822,0.15131031936654865,2,0,0
112,shape,shape,left,0,1,0.4638672,left,0.51863822,0.15131031936654865,2,0,0
112,shape,shape,right,0,1,0.4637666,right,0.51863822,0.15131031936654865,2,0,0
112,shape,shape,right,0,1,0.3998077,right,0.51863822,0.15131031936654865,2,0,0
112,shape,shape,left,0,1,0.4399334,left,0.51863822,0.15131031936654865,2,0,0
112,shape,shape,right,0,1,0.4797776,right,0.51863822,0.15131031936654865,2,0,0
112,shape,shape,left,0,1,0.4238451,left,0.51863822,0.15131031936654865,2,0,0
112,shift,color,right,1,1,0.5758126,right,0.5393332984375,0.17546773458310727,6.4,0,0
112,shift,shape,left,1,1,0.6318503,left,0.5393332984375,0.17546773458310727,6.4,0,0
112,shift,shape,right,0,1,0.4318983,right,0.5393332984375,0.17546773458310727,6.4,0,0
112,shift,shape,right,0,1,0.3917917,right,0.5393332984375,0.17546773458310727,6.4,0,0
112,shift,color,left,1,1,0.3998322,left,0.5393332984375,0.17546773458310727,6.4,0,0
112,shift,shape,left,1,1,0.511879,left,0.5393332984375,0.17546773458310727,6.4,0,0
112,shift,shape,left,0,1,0.4958493,left,0.5393332984375,0.17546773458310727,6.4,0,0
112,shift,color,left,1,1,0.3997394,left,0.5393332984375,0.17546773458310727,6.4,0,0
112,shift,color,right,0,1,0.6158772,right,0.5393332984375,0.17546773458310727,6.4,0,0
112,shift,shape,left,1,1,0.5518807,left,0.5393332984375,0.17546773458310727,6.4,0,0
112,shift,shape,left,0,1,0.4317604,left,0.5393332984375,0.17546773458310727,6.4,0,0
112,shift,shape,left,0,1,0.3758319,left,0.5393332984375,0.17546773458310727,6.4,0,0
112,shift,shape,right,0,1,0.3117748,right,0.5393332984375,0.17546773458310727,6.4,0,0
112,shift,color,right,1,1,0.3438403,right,0.5393332984375,0.17546773458310727,6.4,0,0
112,shift,shape,left,1,1,0.4878841,left,0.5393332984375,0.17546773458310727,6.4,0,0
112,shift,color,left,1,1,0.4237852,left,0.5393332984375,0.17546773458310727,6.4,0,0
112,shift,color,right,0,0,0.5918456,left,0.5393332984375,0.17546773458310727,6.4,0,0
112,shift,shape,left,1,1,0.4397736,left,0.5393332984375,0.17546773458310727,6.4,0,0
112,shift,shape,right,0,1,0.3519063,right,0.5393332984375,0.17546773458310727,6.4,0,0
112,shift,shape,left,0,1,0.4638129,left,0.5393332984375,0.17546773458310727,6.4,0,0
112,shift,color,right,1,1,0.3997969,right,0.5393332984375,0.17546773458310727,6.4,0,0
112,shift,color,right,0,1,0.5359522,right,0.5393332984375,0.17546773458310727,6.4,0,0
112,shift,shape,left,1,1,0.4318112,left,0.5393332984375,0.17546773458310727,6.4,0,0
112,shift,shape,left,0,1,0.4637951,left,0.5393332984375,0.17546773458310727,6.4,0,0
112,shift,shape,right,0,1,0.3998783,right,0.5393332984375,0.17546773458310727,6.4,0,0
112,shift,color,left,1,1,0.3038073,left,0.5393332984375,0.17546773458310727,6.4,0,0
112,shift,shape,right,1,1,0.5358593,right,0.5393332984375,0.17546773458310727,6.4,0,0
112,shift,color,left,1,1,0.9278,left,0.5393332984375,0.17546773458310727,6.4,0,0
112,shift,shape,right,1,1,0.8158535,right,0.5393332984375,0.17546773458310727,6.4,0,0
112,shift,color,right,1,0,0.4798691,left,0.5393332984375,0.17546773458310727,6.4,0,0
112,shift,color,left,0,1,0.6398509,left,0.5393332984375,0.17546773458310727,6.4,0,0
112,shift,color,left,0,1,0.4318149,left,0.5393332984375,0.17546773458310727,6.4,0,0
