subject_id,block_name,trial_location,trial_similarity,trial_corr_resp,resp_corr,resp_rt,resp_value,mean_rt,sd_rt,exclude_thresh,exclude_trial,exclude_part
100,nb1TestingBlock,11,0,left,1,0.651104674397,left,0.7243381017769667,0.23195019095197514,3,0,0
100,nb1TestingBlock,7,4,right,1,0.658851366984,right,0.7243381017769667,0.23195019095197514,3,0,0
100,nb1TestingBlock,8,1,right,0,1.46492324519,left,0.7243381017769667,0.23195019095197514,3,1,0
100,nb1TestingBlock,12,4,right,1,0.757449979418,right,0.7243381017769667,0.23195019095197514,3,0,0
100,nb1TestingBlock,12,0,left,1,0.524585878556,left,0.7243381017769667,0.23195019095197514,3,0,0
100,nb1TestingBlock,0,3,right,1,0.571855065758,right,0.7243381017769667,0.23195019095197514,3,0,0
100,nb1TestingBlock,0,0,left,0,1.2510202426,right,0.7243381017769667,0.23195019095197514,3,0,0
100,nb1TestingBlock,1,1,right,0,0.703019413304,left,0.7243381017769667,0.23195019095197514,3,0,0
100,nb1TestingBlock,3,2,right,1,0.655406189061,right,0.7243381017769667,0.23195019095197514,3,0,0
100,nb1TestingBlock,2,1,right,0,0.65428273535,left,0.7243381017769667,0.23195019095197514,3,0,0
100,nb1TestingBlock,6,4,right,1,0.571420888006,right,0.7243381017769667,0.23195019095197514,3,0,0
100,nb1TestingBlock,6,0,left,1,0.803842698452,left,0.7243381017769667,0.23195019095197514,3,0,0
100,nb1TestingBlock,6,0,left,1,0.523483758146,left,0.7243381017769667,0.23195019095197514,3,0,0
100,nb1TestingBlock,10,4,right,1,0.921590502775,right,0.7243381017769667,0.23195019095197514,3,0,0
100,nb1TestingBlock,8,2,right,0,0.71252354926000006,left,0.7243381017769667,0.23195019095197514,3,0,0
100,nb1TestingBlock,8,0,left,1,0.592119598693,left,0.7243381017769667,0.23195019095197514,3,0,0
100,nb1TestingBlock,6,2,right,1,0.719098713091,right,0.7243381017769667,0.23195019095197514,3,0,0
100,nb1TestingBlock,9,3,right,1,0.710259515103,right,0.7243381017769667,0.23195019095197514,3,0,0
100,nb1TestingBlock,9,0,left,1,0.460700152939,left,0.7243381017769667,0.23195019095197514,3,0,0
100,nb1TestingBlock,5,4,right,1,0.52469975632,right,0.7243381017769667,0.23195019095197514,3,0,0
100,nb1TestingBlock,4,1,right,1,0.768984384624,right,0.7243381017769667,0.23195019095197514,3,0,0
100,nb1TestingBlock,4,0,left,1,0.497113394008,left,0.7243381017769667,0.23195019095197514,3,0,0
100,nb1TestingBlock,2,2,right,1,0.69598272904,right,0.7243381017769667,0.23195019095197514,3,0,0
100,nb1TestingBlock,14,3,right,1,0.678545910166,right,0.7243381017769667,0.23195019095197514,3,0,0
100,nb1TestingBlock,11,3,right,1,1.22188676524,right,0.7243381017769667,0.23195019095197514,3,0,0
100,nb1TestingBlock,13,2,right,0,0.916327186738,left,0.7243381017769667,0.23195019095197514,3,0,0
100,nb1TestingBlock,13,0,left,1,0.70650695736,left,0.7243381017769667,0.23195019095197514,3,0,0
100,nb1TestingBlock,14,1,right,0,0.714038213652,left,0.7243381017769667,0.23195019095197514,3,0,0
100,nb1TestingBlock,2,3,right,1,0.473365824051,right,0.7243381017769667,0.23195019095197514,3,0,0
100,nb1TestingBlock,2,0,left,1,0.625153765027,left,0.7243381017769667,0.23195019095197514,3,0,0
100,nb2TestingBlock,3,0,left,1,0.384833224664,left,0.9033305790339777,0.4917907856231784,9,0,0
100,nb2TestingBlock,9,3,right,1,1.11108640588,right,0.9033305790339777,0.4917907856231784,9,0,0
100,nb2TestingBlock,2,1,right,0,0.67153777046,left,0.9033305790339777,0.4917907856231784,9,0,0
100,nb2TestingBlock,9,0,left,1,0.754996349301,left,0.9033305790339777,0.4917907856231784,9,0,0
100,nb2TestingBlock,4,2,right,1,1.03060427327,right,0.9033305790339777,0.4917907856231784,9,0,0
100,nb2TestingBlock,10,1,right,0,1.07328650023,left,0.9033305790339777,0.4917907856231784,9,0,0
100,nb2TestingBlock,6,2,right,1,1.17855161908,right,0.9033305790339777,0.4917907856231784,9,0,0
100,nb2TestingBlock,6,4,right,0,0.815493084705,left,0.9033305790339777,0.4917907856231784,9,0,0
100,nb2TestingBlock,7,1,right,0,0.883570653791,left,0.9033305790339777,0.4917907856231784,9,0,0
100,nb2TestingBlock,6,0,left,0,0.623658631123,right,0.9033305790339777,0.4917907856231784,9,0,0
100,nb2TestingBlock,5,2,right,1,0.747528491976,right,0.9033305790339777,0.4917907856231784,9,0,0
100,nb2TestingBlock,10,4,right,0,0.814750024789,left,0.9033305790339777,0.4917907856231784,9,0,0
100,nb2TestingBlock,2,3,right,1,0.907091069159,right,0.9033305790339777,0.4917907856231784,9,0,0
100,nb2TestingBlock,13,3,right,1,1.11112486592,right,0.9033305790339777,0.4917907856231784,9,0,0
100,nb2TestingBlock,3,1,right,0,0.718590319489,left,0.9033305790339777,0.4917907856231784,9,0,0
100,nb2TestingBlock,1,3,right,1,0.467005495578,right,0.9033305790339777,0.4917907856231784,9,0,0
100,nb2TestingBlock,3,0,left,1,0.710201224111,left,0.9033305790339777,0.4917907856231784,9,0,0
100,nb2TestingBlock,1,0,left,1,0.801836767194,left,0.9033305790339777,0.4917907856231784,9,0,0
100,nb2TestingBlock,4,1,right,0,0.90963033295,left,0.9033305790339777,0.4917907856231784,9,0,0
100,nb2TestingBlock,1,0,left,0,0.442092406246,right,0.9033305790339777,0.4917907856231784,9,0,0
100,nb2TestingBlock,4,0,left,1,0.638017445232,left,0.9033305790339777,0.4917907856231784,9,0,0
100,nb2TestingBlock,5,4,right,0,1.08905241081,left,0.9033305790339777,0.4917907856231784,9,0,0
100,nb2TestingBlock,0,4,right,1,0.906306244047,right,0.9033305790339777,0.4917907856231784,9,0,0
100,nb2TestingBlock,5,0,left,1,0.32579857157,left,0.9033305790339777,0.4917907856231784,9,0,0
100,nb2TestingBlock,3,3,right,1,0.553594961735,right,0.9033305790339777,0.4917907856231784,9,0,0
100,nb2TestingBlock,1,4,right,0,0.549795230355,left,0.9033305790339777,0.4917907856231784,9,0,0
100,nb2TestingBlock,1,2,right,0,0.824648075646,left,0.9033305790339777,0.4917907856231784,9,0,0
100,nb2TestingBlock,12,4,right,1,0.749081315934,right,0.9033305790339777,0.4917907856231784,9,0,0
100,nb2TestingBlock,14,2,right,1,0.872986031195,right,0.9033305790339777,0.4917907856231784,9,0,0
100,nb2TestingBlock,11,1,right,0,0.837328169272,left,0.9033305790339777,0.4917907856231784,9,0,0
100,nb2TestingBlock,14,0,left,1,0.752294531764,left,0.9033305790339777,0.4917907856231784,9,0,0
100,nb2TestingBlock,14,3,right,0,0.716002680184,left,0.9033305790339777,0.4917907856231784,9,0,0
100,nb2TestingBlock,12,2,right,0,0.672748961128,left,0.9033305790339777,0.4917907856231784,9,0,0
100,nb2TestingBlock,0,1,right,1,0.523730443222,right,0.9033305790339777,0.4917907856231784,9,0,0
100,nb2TestingBlock,8,4,right,0,0.807503913609,left,0.9033305790339777,0.4917907856231784,9,0,0
100,nb2TestingBlock,0,0,left,1,0.82772668135,left,0.9033305790339777,0.4917907856231784,9,0,0
100,nb2TestingBlock,11,3,right,1,0.671285977411,right,0.9033305790339777,0.4917907856231784,9,0,0
100,nb2TestingBlock,13,2,right,1,0.955544705285,right,0.9033305790339777,0.4917907856231784,9,0,0
100,nb2TestingBlock,11,0,left,1,0.991784876192,left,0.9033305790339777,0.4917907856231784,9,0,0
100,nb2TestingBlock,11,2,right,0,0.755176330252,left,0.9033305790339777,0.4917907856231784,9,0,0
100,nb2TestingBlock,11,0,left,1,0.774901821744,left,0.9033305790339777,0.4917907856231784,9,0,0
100,nb2TestingBlock,8,3,right,1,0.898774086349,right,0.9033305790339777,0.4917907856231784,9,0,0
100,nb2TestingBlock,9,2,right,0,1.24609014672,left,0.9033305790339777,0.4917907856231784,9,0,0
100,nb2TestingBlock,9,1,right,0,0.848848752903,left,0.9033305790339777,0.4917907856231784,9,0,0
100,nb2TestingBlock,7,2,right,0,2.2681385643,left,0.9033305790339777,0.4917907856231784,9,0,0
100,nb2TestingBlock,9,0,left,0,2.58186398969,right,0.9033305790339777,0.4917907856231784,9,1,0
100,nb2TestingBlock,7,0,left,1,3.31480140499,left,0.9033305790339777,0.4917907856231784,9,1,0
100,nb2TestingBlock,8,1,right,0,3.46652684841,left,0.9033305790339777,0.4917907856231784,9,1,0
100,nb2TestingBlock,3,4,right,1,1.0927337574,right,0.9033305790339777,0.4917907856231784,9,0,0
100,nb2TestingBlock,8,0,left,1,1.38922698332,left,0.9033305790339777,0.4917907856231784,9,0,0
100,nb2TestingBlock,6,3,right,1,0.682425866778,right,0.9033305790339777,0.4917907856231784,9,0,0
100,nb2TestingBlock,10,2,right,1,1.13387397728,right,0.9033305790339777,0.4917907856231784,9,0,0
100,nb2TestingBlock,6,0,left,1,1.16473545204,left,0.9033305790339777,0.4917907856231784,9,0,0
100,nb2TestingBlock,10,0,left,0,0.745175518985,right,0.9033305790339777,0.4917907856231784,9,0,0
100,nb2TestingBlock,5,1,right,0,0.781871801883,left,0.9033305790339777,0.4917907856231784,9,0,0
100,nb2TestingBlock,10,0,left,0,1.01706183352,right,0.9033305790339777,0.4917907856231784,9,0,0
100,nb2TestingBlock,5,0,left,1,0.860247045638,left,0.9033305790339777,0.4917907856231784,9,0,0
100,nb2TestingBlock,7,3,right,1,0.752536108866,right,0.9033305790339777,0.4917907856231784,9,0,0
100,nb2TestingBlock,3,2,right,1,0.795657621547,right,0.9033305790339777,0.4917907856231784,9,0,0
100,nb2TestingBlock,10,3,right,0,0.768313437276,left,0.9033305790339777,0.4917907856231784,9,0,0
100,nb2TestingBlock,7,4,right,1,0.779347862013,right,0.9033305790339777,0.4917907856231784,9,0,0
100,nb2TestingBlock,14,4,right,1,1.07167298152,right,0.9033305790339777,0.4917907856231784,9,0,0
100,nb2TestingBlock,6,1,right,1,0.864632691632,right,0.9033305790339777,0.4917907856231784,9,0,0
100,nb2TestingBlock,14,0,left,1,0.77293465099,left,0.9033305790339777,0.4917907856231784,9,0,0
100,nb2TestingBlock,2,4,right,1,1.16836782217,right,0.9033305790339777,0.4917907856231784,9,0,0
100,nb2TestingBlock,13,1,right,0,0.61406345305,left,0.9033305790339777,0.4917907856231784,9,0,0
100,nb2TestingBlock,1,1,right,0,0.617956329831,left,0.9033305790339777,0.4917907856231784,9,0,0
100,nb2TestingBlock,0,2,right,1,0.701555227711,right,0.9033305790339777,0.4917907856231784,9,0,0
100,nb2TestingBlock,4,3,right,0,1.06475017502,left,0.9033305790339777,0.4917907856231784,9,0,0
100,nb2TestingBlock,4,4,right,0,0.674363681707,left,0.9033305790339777,0.4917907856231784,9,0,0
100,nb2TestingBlock,8,4,right,0,0.846463028788,left,0.9033305790339777,0.4917907856231784,9,0,0
100,nb2TestingBlock,4,0,left,0,0.705509400174,right,0.9033305790339777,0.4917907856231784,9,0,0
100,nb2TestingBlock,8,0,left,1,0.517242114941,left,0.9033305790339777,0.4917907856231784,9,0,0
100,nb2TestingBlock,2,2,right,1,0.729369345548,right,0.9033305790339777,0.4917907856231784,9,0,0
100,nb2TestingBlock,5,3,right,1,0.85348799476,right,0.9033305790339777,0.4917907856231784,9,0,0
100,nb2TestingBlock,2,0,left,1,0.769273435833,left,0.9033305790339777,0.4917907856231784,9,0,0
100,nb2TestingBlock,2,3,right,0,0.629709476493,left,0.9033305790339777,0.4917907856231784,9,0,0
100,nb2TestingBlock,13,4,right,1,0.721056268836,right,0.9033305790339777,0.4917907856231784,9,0,0
100,nb2TestingBlock,2,0,left,1,1.16538476562,left,0.9033305790339777,0.4917907856231784,9,0,0
100,nb2TestingBlock,13,0,left,0,0.770017697626,right,0.9033305790339777,0.4917907856231784,9,0,0
100,nb2TestingBlock,14,3,right,0,0.653682398224,left,0.9033305790339777,0.4917907856231784,9,0,0
100,nb2TestingBlock,13,0,left,1,0.714005462527,left,0.9033305790339777,0.4917907856231784,9,0,0
100,nb2TestingBlock,12,2,right,1,0.678054643298,right,0.9033305790339777,0.4917907856231784,9,0,0
100,nb2TestingBlock,12,1,right,0,0.608989132035,left,0.9033305790339777,0.4917907856231784,9,0,0
100,nb2TestingBlock,1,4,right,1,0.580683146391,right,0.9033305790339777,0.4917907856231784,9,0,0
100,nb2TestingBlock,12,0,left,0,0.761238893913,right,0.9033305790339777,0.4917907856231784,9,0,0
100,nb2TestingBlock,0,1,right,0,1.35651612167,left,0.9033305790339777,0.4917907856231784,9,0,0
100,nb2TestingBlock,12,0,left,1,0.81864891095,left,0.9033305790339777,0.4917907856231784,9,0,0
100,nb2TestingBlock,0,0,left,1,0.638854852425,left,0.9033305790339777,0.4917907856231784,9,0,0
100,nb2TestingBlock,12,0,left,0,0.690238061614,right,0.9033305790339777,0.4917907856231784,9,0,0
101,nb1TestingBlock,11,0,left,1,0.614403884464,left,0.7833341846621,0.26193987225845317,3,0,0
101,nb1TestingBlock,7,4,right,1,0.844860927908,right,0.7833341846621,0.26193987225845317,3,0,0
101,nb1TestingBlock,8,1,right,0,0.540175413821,left,0.7833341846621,0.26193987225845317,3,0,0
101,nb1TestingBlock,12,4,right,1,0.715124709672,right,0.7833341846621,0.26193987225845317,3,0,0
101,nb1TestingBlock,12,0,left,1,0.706058056626,left,0.7833341846621,0.26193987225845317,3,0,0
101,nb1TestingBlock,0,3,right,1,0.513157538918,right,0.7833341846621,0.26193987225845317,3,0,0
101,nb1TestingBlock,0,0,left,1,0.664404635636,left,0.7833341846621,0.26193987225845317,3,0,0
101,nb1TestingBlock,1,1,right,1,0.727544296647,right,0.7833341846621,0.26193987225845317,3,0,0
101,nb1TestingBlock,3,2,right,0,1.22218122489,left,0.7833341846621,0.26193987225845317,3,0,0
101,nb1TestingBlock,2,1,right,1,1.05272600529,right,0.7833341846621,0.26193987225845317,3,0,0
101,nb1TestingBlock,6,4,right,1,0.529862114761,right,0.7833341846621,0.26193987225845317,3,0,0
101,nb1TestingBlock,6,0,left,1,0.767997944792,left,0.7833341846621,0.26193987225845317,3,0,0
101,nb1TestingBlock,6,0,left,1,0.52709629732,left,0.7833341846621,0.26193987225845317,3,0,0
101,nb1TestingBlock,10,4,right,1,0.566244107051,right,0.7833341846621,0.26193987225845317,3,0,0
101,nb1TestingBlock,8,2,right,1,1.39004906659,right,0.7833341846621,0.26193987225845317,3,0,0
101,nb1TestingBlock,8,0,left,1,0.797176792974,left,0.7833341846621,0.26193987225845317,3,0,0
101,nb1TestingBlock,6,2,right,1,1.11630314922,right,0.7833341846621,0.26193987225845317,3,0,0
101,nb1TestingBlock,9,3,right,1,0.877406832065,right,0.7833341846621,0.26193987225845317,3,0,0
101,nb1TestingBlock,9,0,left,1,0.549684056813,left,0.7833341846621,0.26193987225845317,3,0,0
101,nb1TestingBlock,5,4,right,1,1.54808646297,right,0.7833341846621,0.26193987225845317,3,0,0
101,nb1TestingBlock,4,1,right,0,0.805006114545,left,0.7833341846621,0.26193987225845317,3,0,0
101,nb1TestingBlock,4,0,left,0,0.564041669045,right,0.7833341846621,0.26193987225845317,3,0,0
101,nb1TestingBlock,2,2,right,1,0.555316949759,right,0.7833341846621,0.26193987225845317,3,0,0
101,nb1TestingBlock,14,3,right,1,0.786375532206,right,0.7833341846621,0.26193987225845317,3,0,0
101,nb1TestingBlock,11,3,right,1,0.824795305472,right,0.7833341846621,0.26193987225845317,3,0,0
101,nb1TestingBlock,13,2,right,1,0.623976827828,right,0.7833341846621,0.26193987225845317,3,0,0
101,nb1TestingBlock,13,0,left,1,0.560604303318,left,0.7833341846621,0.26193987225845317,3,0,0
101,nb1TestingBlock,14,1,right,0,0.996921093827,left,0.7833341846621,0.26193987225845317,3,0,0
101,nb1TestingBlock,2,3,right,1,0.716308858127,right,0.7833341846621,0.26193987225845317,3,0,0
101,nb1TestingBlock,2,0,left,1,0.796135367308,left,0.7833341846621,0.26193987225845317,3,0,0
101,nb2TestingBlock,3,0,left,1,0.632812420188,left,1.1467661219165222,0.7568007253005349,9,0,0
101,nb2TestingBlock,9,3,right,1,1.01609221996,right,1.1467661219165222,0.7568007253005349,9,0,0
101,nb2TestingBlock,2,1,right,1,2.05174467344,right,1.1467661219165222,0.7568007253005349,9,0,0
101,nb2TestingBlock,9,0,left,0,2.8451220355,right,1.1467661219165222,0.7568007253005349,9,0,0
101,nb2TestingBlock,4,2,right,1,0.912521145508,right,1.1467661219165222,0.7568007253005349,9,0,0
101,nb2TestingBlock,10,1,right,0,1.01574367588,left,1.1467661219165222,0.7568007253005349,9,0,0
101,nb2TestingBlock,6,2,right,1,3.78318064499,right,1.1467661219165222,0.7568007253005349,9,1,0
101,nb2TestingBlock,6,4,right,1,2.165288916,right,1.1467661219165222,0.7568007253005349,9,0,0
101,nb2TestingBlock,7,1,right,1,2.53884163179,right,1.1467661219165222,0.7568007253005349,9,0,0
101,nb2TestingBlock,6,0,left,0,1.57766824012,right,1.1467661219165222,0.7568007253005349,9,0,0
101,nb2TestingBlock,5,2,right,1,1.37504214078,right,1.1467661219165222,0.7568007253005349,9,0,0
101,nb2TestingBlock,10,4,right,0,1.47608927536,left,1.1467661219165222,0.7568007253005349,9,0,0
101,nb2TestingBlock,2,3,right,0,1.02908059481,left,1.1467661219165222,0.7568007253005349,9,0,0
101,nb2TestingBlock,13,3,right,1,1.1840673291,right,1.1467661219165222,0.7568007253005349,9,0,0
101,nb2TestingBlock,3,1,right,1,0.972918726131,right,1.1467661219165222,0.7568007253005349,9,0,0
101,nb2TestingBlock,1,3,right,0,0.777059790333,left,1.1467661219165222,0.7568007253005349,9,0,0
101,nb2TestingBlock,3,0,left,0,0.748656152254,right,1.1467661219165222,0.7568007253005349,9,0,0
101,nb2TestingBlock,1,0,left,1,0.752560146389,left,1.1467661219165222,0.7568007253005349,9,0,0
101,nb2TestingBlock,4,1,right,1,0.316918509794,right,1.1467661219165222,0.7568007253005349,9,0,0
101,nb2TestingBlock,1,0,left,1,1.17667368763,left,1.1467661219165222,0.7568007253005349,9,0,0
101,nb2TestingBlock,4,0,left,0,2.95738597951,right,1.1467661219165222,0.7568007253005349,9,0,0
101,nb2TestingBlock,5,4,right,1,4.23560978688,right,1.1467661219165222,0.7568007253005349,9,1,0
101,nb2TestingBlock,0,4,right,1,1.26316880651,right,1.1467661219165222,0.7568007253005349,9,0,0
101,nb2TestingBlock,5,0,left,0,0.664854137308,right,1.1467661219165222,0.7568007253005349,9,0,0
101,nb2TestingBlock,3,3,right,0,1.03642345702,left,1.1467661219165222,0.7568007253005349,9,0,0
101,nb2TestingBlock,1,4,right,1,0.662923323308,right,1.1467661219165222,0.7568007253005349,9,0,0
101,nb2TestingBlock,1,2,right,0,1.28372509487,left,1.1467661219165222,0.7568007253005349,9,0,0
101,nb2TestingBlock,12,4,right,1,2.08358237208,right,1.1467661219165222,0.7568007253005349,9,0,0
101,nb2TestingBlock,14,2,right,0,3.05260611815,left,1.1467661219165222,0.7568007253005349,9,0,0
101,nb2TestingBlock,11,1,right,1,0.510507702524,right,1.1467661219165222,0.7568007253005349,9,0,0
101,nb2TestingBlock,14,0,left,1,0.971027574043,left,1.1467661219165222,0.7568007253005349,9,0,0
101,nb2TestingBlock,14,3,right,0,2.01435490801,left,1.1467661219165222,0.7568007253005349,9,0,0
101,nb2TestingBlock,12,2,right,1,1.13049219832,right,1.1467661219165222,0.7568007253005349,9,0,0
101,nb2TestingBlock,0,1,right,0,0.680584893018,left,1.1467661219165222,0.7568007253005349,9,0,0
101,nb2TestingBlock,8,4,right,1,1.40410410651,right,1.1467661219165222,0.7568007253005349,9,0,0
101,nb2TestingBlock,0,0,left,0,0.936805353156,right,1.1467661219165222,0.7568007253005349,9,0,0
101,nb2TestingBlock,11,3,right,1,0.628566191825,right,1.1467661219165222,0.7568007253005349,9,0,0
101,nb2TestingBlock,13,2,right,1,0.639831376779,right,1.1467661219165222,0.7568007253005349,9,0,0
101,nb2TestingBlock,11,0,left,0,0.676221181264,right,1.1467661219165222,0.7568007253005349,9,0,0
101,nb2TestingBlock,11,2,right,0,0.783288513369,left,1.1467661219165222,0.7568007253005349,9,0,0
101,nb2TestingBlock,11,0,left,1,0.523482255801,left,1.1467661219165222,0.7568007253005349,9,0,0
101,nb2TestingBlock,8,3,right,0,0.679426584899,left,1.1467661219165222,0.7568007253005349,9,0,0
101,nb2TestingBlock,9,2,right,0,0.363626721312,left,1.1467661219165222,0.7568007253005349,9,0,0
101,nb2TestingBlock,9,1,right,0,0.782839612635,left,1.1467661219165222,0.7568007253005349,9,0,0
101,nb2TestingBlock,7,2,right,1,0.610891701947,right,1.1467661219165222,0.7568007253005349,9,0,0
101,nb2TestingBlock,9,0,left,1,0.734898276209,left,1.1467661219165222,0.7568007253005349,9,0,0
101,nb2TestingBlock,7,0,left,0,1.33857751951,right,1.1467661219165222,0.7568007253005349,9,0,0
101,nb2TestingBlock,8,1,right,1,1.12885163741,right,1.1467661219165222,0.7568007253005349,9,0,0
101,nb2TestingBlock,3,4,right,1,0.864419959557,right,1.1467661219165222,0.7568007253005349,9,0,0
101,nb2TestingBlock,8,0,left,1,0.756125211455,left,1.1467661219165222,0.7568007253005349,9,0,0
101,nb2TestingBlock,6,3,right,0,1.35190181874,left,1.1467661219165222,0.7568007253005349,9,0,0
101,nb2TestingBlock,10,2,right,1,0.92577994249,right,1.1467661219165222,0.7568007253005349,9,0,0
101,nb2TestingBlock,6,0,left,0,1.44233458429,right,1.1467661219165222,0.7568007253005349,9,0,0
101,nb2TestingBlock,10,0,left,1,0.676585950669,left,1.1467661219165222,0.7568007253005349,9,0,0
101,nb2TestingBlock,5,1,right,1,0.808520400345,right,1.1467661219165222,0.7568007253005349,9,0,0
101,nb2TestingBlock,10,0,left,0,1.01633770315,right,1.1467661219165222,0.7568007253005349,9,0,0
101,nb2TestingBlock,5,0,left,1,0.903044051765,left,1.1467661219165222,0.7568007253005349,9,0,0
101,nb2TestingBlock,7,3,right,1,2.6436452302,right,1.1467661219165222,0.7568007253005349,9,0,0
101,nb2TestingBlock,3,2,right,1,2.05388431341,right,1.1467661219165222,0.7568007253005349,9,0,0
101,nb2TestingBlock,10,3,right,1,1.12001814833,right,1.1467661219165222,0.7568007253005349,9,0,0
101,nb2TestingBlock,7,4,right,1,2.11950765144,right,1.1467661219165222,0.7568007253005349,9,0,0
101,nb2TestingBlock,14,4,right,1,2.21488163022,right,1.1467661219165222,0.7568007253005349,9,0,0
101,nb2TestingBlock,6,1,right,0,0.890302662456,left,1.1467661219165222,0.7568007253005349,9,0,0
101,nb2TestingBlock,14,0,left,1,1.01580497156,left,1.1467661219165222,0.7568007253005349,9,0,0
101,nb2TestingBlock,2,4,right,1,1.01520974241,right,1.1467661219165222,0.7568007253005349,9,0,0
101,nb2TestingBlock,13,1,right,0,1.31665680127,left,1.1467661219165222,0.7568007253005349,9,0,0
101,nb2TestingBlock,1,1,right,1,1.02794602374,right,1.1467661219165222,0.7568007253005349,9,0,0
101,nb2TestingBlock,0,2,right,1,1.1992590433700001,right,1.1467661219165222,0.7568007253005349,9,0,0
101,nb2TestingBlock,4,3,right,0,0.883081790675,left,1.1467661219165222,0.7568007253005349,9,0,0
101,nb2TestingBlock,4,4,right,0,0.950702947301,left,1.1467661219165222,0.7568007253005349,9,0,0
101,nb2TestingBlock,8,4,right,0,0.898770781189,left,1.1467661219165222,0.7568007253005349,9,0,0
101,nb2TestingBlock,4,0,left,1,0.943061719344,left,1.1467661219165222,0.7568007253005349,9,0,0
101,nb2TestingBlock,8,0,left,1,1.05825764018,left,1.1467661219165222,0.7568007253005349,9,0,0
101,nb2TestingBlock,2,2,right,0,0.892159861544,left,1.1467661219165222,0.7568007253005349,9,0,0
101,nb2TestingBlock,5,3,right,1,0.848597560792,right,1.1467661219165222,0.7568007253005349,9,0,0
101,nb2TestingBlock,2,0,left,1,0.716543524441,left,1.1467661219165222,0.7568007253005349,9,0,0
101,nb2TestingBlock,2,3,right,1,0.343814394269,right,1.1467661219165222,0.7568007253005349,9,0,0
101,nb2TestingBlock,13,4,right,1,0.267269607858,right,1.1467661219165222,0.7568007253005349,9,0,0
101,nb2TestingBlock,2,0,left,1,0.19928308088900001,left,1.1467661219165222,0.7568007253005349,9,0,0
101,nb2TestingBlock,13,0,left,0,0.547262877352,right,1.1467661219165222,0.7568007253005349,9,0,0
101,nb2TestingBlock,14,3,right,0,0.406979595148,left,1.1467661219165222,0.7568007253005349,9,0,0
101,nb2TestingBlock,13,0,left,1,0.546698896978,left,1.1467661219165222,0.7568007253005349,9,0,0
101,nb2TestingBlock,12,2,right,1,0.342590283433,right,1.1467661219165222,0.7568007253005349,9,0,0
101,nb2TestingBlock,12,1,right,1,0.210774819493,right,1.1467661219165222,0.7568007253005349,9,0,0
101,nb2TestingBlock,1,4,right,1,1.46251077933,right,1.1467661219165222,0.7568007253005349,9,0,0
101,nb2TestingBlock,12,0,left,1,0.720594147464,left,1.1467661219165222,0.7568007253005349,9,0,0
101,nb2TestingBlock,0,1,right,1,1.15680547334,right,1.1467661219165222,0.7568007253005349,9,0,0
101,nb2TestingBlock,12,0,left,1,0.482320702617,left,1.1467661219165222,0.7568007253005349,9,0,0
101,nb2TestingBlock,0,0,left,1,1.54163899848,left,1.1467661219165222,0.7568007253005349,9,0,0
101,nb2TestingBlock,12,0,left,1,0.300326309369,left,1.1467661219165222,0.7568007253005349,9,0,0
102,nb1TestingBlock,11,0,left,1,0.915938253521,left,0.8287800888886333,0.2834377262615865,3,0,0
102,nb1TestingBlock,7,4,right,1,1.41888300469,right,0.8287800888886333,0.2834377262615865,3,0,0
102,nb1TestingBlock,8,1,right,1,1.01434110798,right,0.8287800888886333,0.2834377262615865,3,0,0
102,nb1TestingBlock,12,4,right,1,0.696567586854,right,0.8287800888886333,0.2834377262615865,3,0,0
102,nb1TestingBlock,12,0,left,1,0.583329652582,left,0.8287800888886333,0.2834377262615865,3,0,0
102,nb1TestingBlock,0,3,right,1,0.798308356808,right,0.8287800888886333,0.2834377262615865,3,0,0
102,nb1TestingBlock,0,0,left,1,0.68562058216,left,0.8287800888886333,0.2834377262615865,3,0,0
102,nb1TestingBlock,1,1,right,0,1.18771951174,left,0.8287800888886333,0.2834377262615865,3,0,0
102,nb1TestingBlock,3,2,right,1,0.91633457277,right,0.8287800888886333,0.2834377262615865,3,0,0
102,nb1TestingBlock,2,1,right,0,0.923047361502,left,0.8287800888886333,0.2834377262615865,3,0,0
102,nb1TestingBlock,6,4,right,1,0.54637941784,right,0.8287800888886333,0.2834377262615865,3,0,0
102,nb1TestingBlock,6,0,left,1,0.921034516432,left,0.8287800888886333,0.2834377262615865,3,0,0
102,nb1TestingBlock,6,0,left,1,0.551738591549,left,0.8287800888886333,0.2834377262615865,3,0,0
102,nb1TestingBlock,10,4,right,1,0.807093183099,right,0.8287800888886333,0.2834377262615865,3,0,0
102,nb1TestingBlock,8,2,right,0,1.14229784038,left,0.8287800888886333,0.2834377262615865,3,0,0
102,nb1TestingBlock,8,0,left,1,0.767993089202,left,0.8287800888886333,0.2834377262615865,3,0,0
102,nb1TestingBlock,6,2,right,1,0.470938741784,right,0.8287800888886333,0.2834377262615865,3,0,0
102,nb1TestingBlock,9,3,right,1,0.516483906103,right,0.8287800888886333,0.2834377262615865,3,0,0
102,nb1TestingBlock,9,0,left,1,0.596794591549,left,0.8287800888886333,0.2834377262615865,3,0,0
102,nb1TestingBlock,5,4,right,1,0.603562065728,right,0.8287800888886333,0.2834377262615865,3,0,0
102,nb1TestingBlock,4,1,right,1,0.842992375587,right,0.8287800888886333,0.2834377262615865,3,0,0
102,nb1TestingBlock,4,0,left,1,0.521371943662,left,0.8287800888886333,0.2834377262615865,3,0,0
102,nb1TestingBlock,2,2,right,1,0.76102369953,right,0.8287800888886333,0.2834377262615865,3,0,0
102,nb1TestingBlock,14,3,right,1,0.751316131455,right,0.8287800888886333,0.2834377262615865,3,0,0
102,nb1TestingBlock,11,3,right,1,1.72606587793,right,0.8287800888886333,0.2834377262615865,3,1,0
102,nb1TestingBlock,13,2,right,1,0.944940169014,right,0.8287800888886333,0.2834377262615865,3,0,0
102,nb1TestingBlock,13,0,left,1,0.625289915493,left,0.8287800888886333,0.2834377262615865,3,0,0
102,nb1TestingBlock,14,1,right,1,1.09415902347,right,0.8287800888886333,0.2834377262615865,3,0,0
102,nb1TestingBlock,2,3,right,1,0.601991211268,right,0.8287800888886333,0.2834377262615865,3,0,0
102,nb1TestingBlock,2,0,left,1,0.929846384977,left,0.8287800888886333,0.2834377262615865,3,0,0
102,nb2TestingBlock,3,0,left,1,0.90760112676,left,0.9024301804901556,0.22582648345563824,9,0,0
102,nb2TestingBlock,9,3,right,1,0.930080751174,right,0.9024301804901556,0.22582648345563824,9,0,0
102,nb2TestingBlock,2,1,right,1,1.39814159624,right,0.9024301804901556,0.22582648345563824,9,0,0
102,nb2TestingBlock,9,0,left,0,1.2580981784,right,0.9024301804901556,0.22582648345563824,9,0,0
102,nb2TestingBlock,4,2,right,1,1.50840458216,right,0.9024301804901556,0.22582648345563824,9,0,0
102,nb2TestingBlock,10,1,right,1,1.25252206573,right,0.9024301804901556,0.22582648345563824,9,0,0
102,nb2TestingBlock,6,2,right,1,0.782039737089,right,0.9024301804901556,0.22582648345563824,9,0,0
102,nb2TestingBlock,6,4,right,1,1.36183556808,right,0.9024301804901556,0.22582648345563824,9,0,0
102,nb2TestingBlock,7,1,right,0,0.760359661972,left,0.9024301804901556,0.22582648345563824,9,0,0
102,nb2TestingBlock,6,0,left,1,0.915568976526,left,0.9024301804901556,0.22582648345563824,9,0,0
102,nb2TestingBlock,5,2,right,1,0.783701633803,right,0.9024301804901556,0.22582648345563824,9,0,0
102,nb2TestingBlock,10,4,right,1,0.819742347418,right,0.9024301804901556,0.22582648345563824,9,0,0
102,nb2TestingBlock,2,3,right,1,0.67071729577500006,right,0.9024301804901556,0.22582648345563824,9,0,0
102,nb2TestingBlock,13,3,right,1,1.08336796244,right,0.9024301804901556,0.22582648345563824,9,0,0
102,nb2TestingBlock,3,1,right,1,0.699586403756,right,0.9024301804901556,0.22582648345563824,9,0,0
102,nb2TestingBlock,1,3,right,1,0.911851868545,right,0.9024301804901556,0.22582648345563824,9,0,0
102,nb2TestingBlock,3,0,left,0,1.29083583099,right,0.9024301804901556,0.22582648345563824,9,0,0
102,nb2TestingBlock,1,0,left,1,0.604009164319,left,0.9024301804901556,0.22582648345563824,9,0,0
102,nb2TestingBlock,4,1,right,0,1.11968600939,left,0.9024301804901556,0.22582648345563824,9,0,0
102,nb2TestingBlock,1,0,left,0,0.990989821596,right,0.9024301804901556,0.22582648345563824,9,0,0
102,nb2TestingBlock,4,0,left,1,0.738572319249,left,0.9024301804901556,0.22582648345563824,9,0,0
102,nb2TestingBlock,5,4,right,1,0.934345615023,right,0.9024301804901556,0.22582648345563824,9,0,0
102,nb2TestingBlock,0,4,right,1,0.930316920188,right,0.9024301804901556,0.22582648345563824,9,0,0
102,nb2TestingBlock,5,0,left,1,0.606013896713,left,0.9024301804901556,0.22582648345563824,9,0,0
102,nb2TestingBlock,3,3,right,1,0.609929615023,right,0.9024301804901556,0.22582648345563824,9,0,0
102,nb2TestingBlock,1,4,right,1,0.91759143662,right,0.9024301804901556,0.22582648345563824,9,0,0
102,nb2TestingBlock,1,2,right,0,1.04162704225,left,0.9024301804901556,0.22582648345563824,9,0,0
102,nb2TestingBlock,12,4,right,1,1.01579057277,right,0.9024301804901556,0.22582648345563824,9,0,0
102,nb2TestingBlock,14,2,right,1,0.943421596244,right,0.9024301804901556,0.22582648345563824,9,0,0
102,nb2TestingBlock,11,1,right,0,0.78757829108,left,0.9024301804901556,0.22582648345563824,9,0,0
102,nb2TestingBlock,14,0,left,0,0.798877746479,right,0.9024301804901556,0.22582648345563824,9,0,0
102,nb2TestingBlock,14,3,right,1,1.11424090141,right,0.9024301804901556,0.22582648345563824,9,0,0
102,nb2TestingBlock,12,2,right,0,0.961807624413,left,0.9024301804901556,0.22582648345563824,9,0,0
102,nb2TestingBlock,0,1,right,1,0.981747981221,right,0.9024301804901556,0.22582648345563824,9,0,0
102,nb2TestingBlock,8,4,right,1,0.993664600939,right,0.9024301804901556,0.22582648345563824,9,0,0
102,nb2TestingBlock,0,0,left,1,0.613886197183,left,0.9024301804901556,0.22582648345563824,9,0,0
102,nb2TestingBlock,11,3,right,1,1.09765889202,right,0.9024301804901556,0.22582648345563824,9,0,0
102,nb2TestingBlock,13,2,right,1,1.04137975587,right,0.9024301804901556,0.22582648345563824,9,0,0
102,nb2TestingBlock,11,0,left,1,0.484245633803,left,0.9024301804901556,0.22582648345563824,9,0,0
102,nb2TestingBlock,11,2,right,1,0.879613596244,right,0.9024301804901556,0.22582648345563824,9,0,0
102,nb2TestingBlock,11,0,left,0,0.851334610329,right,0.9024301804901556,0.22582648345563824,9,0,0
102,nb2TestingBlock,8,3,right,0,1.09504300469,left,0.9024301804901556,0.22582648345563824,9,0,0
102,nb2TestingBlock,9,2,right,1,1.50330591549,right,0.9024301804901556,0.22582648345563824,9,0,0
102,nb2TestingBlock,9,1,right,0,0.807356694836,left,0.9024301804901556,0.22582648345563824,9,0,0
102,nb2TestingBlock,7,2,right,1,0.972006760563,right,0.9024301804901556,0.22582648345563824,9,0,0
102,nb2TestingBlock,9,0,left,1,0.959003342723,left,0.9024301804901556,0.22582648345563824,9,0,0
102,nb2TestingBlock,7,0,left,1,0.914867079812,left,0.9024301804901556,0.22582648345563824,9,0,0
102,nb2TestingBlock,8,1,right,1,0.678908995305,right,0.9024301804901556,0.22582648345563824,9,0,0
102,nb2TestingBlock,3,4,right,1,0.875506178404,right,0.9024301804901556,0.22582648345563824,9,0,0
102,nb2TestingBlock,8,0,left,1,0.870630159624,left,0.9024301804901556,0.22582648345563824,9,0,0
102,nb2TestingBlock,6,3,right,1,0.666317521127,right,0.9024301804901556,0.22582648345563824,9,0,0
102,nb2TestingBlock,10,2,right,1,0.934658403756,right,0.9024301804901556,0.22582648345563824,9,0,0
102,nb2TestingBlock,6,0,left,1,0.618183511737,left,0.9024301804901556,0.22582648345563824,9,0,0
102,nb2TestingBlock,10,0,left,1,0.622392488263,left,0.9024301804901556,0.22582648345563824,9,0,0
102,nb2TestingBlock,5,1,right,1,1.05756214085,right,0.9024301804901556,0.22582648345563824,9,0,0
102,nb2TestingBlock,10,0,left,1,0.891805746479,left,0.9024301804901556,0.22582648345563824,9,0,0
102,nb2TestingBlock,5,0,left,1,1.15940957746,left,0.9024301804901556,0.22582648345563824,9,0,0
102,nb2TestingBlock,7,3,right,1,1.14971823474,right,0.9024301804901556,0.22582648345563824,9,0,0
102,nb2TestingBlock,3,2,right,1,0.915075605634,right,0.9024301804901556,0.22582648345563824,9,0,0
102,nb2TestingBlock,10,3,right,1,0.951122629108,right,0.9024301804901556,0.22582648345563824,9,0,0
102,nb2TestingBlock,7,4,right,1,0.939179868545,right,0.9024301804901556,0.22582648345563824,9,0,0
102,nb2TestingBlock,14,4,right,1,0.718359737089,right,0.9024301804901556,0.22582648345563824,9,0,0
102,nb2TestingBlock,6,1,right,1,0.890956619718,right,0.9024301804901556,0.22582648345563824,9,0,0
102,nb2TestingBlock,14,0,left,1,0.502337201878,left,0.9024301804901556,0.22582648345563824,9,0,0
102,nb2TestingBlock,2,4,right,1,0.962233089202,right,0.9024301804901556,0.22582648345563824,9,0,0
102,nb2TestingBlock,13,1,right,1,0.765610967136,right,0.9024301804901556,0.22582648345563824,9,0,0
102,nb2TestingBlock,1,1,right,1,0.561698253521,right,0.9024301804901556,0.22582648345563824,9,0,0
102,nb2TestingBlock,0,2,right,1,0.694354629108,right,0.9024301804901556,0.22582648345563824,9,0,0
102,nb2TestingBlock,4,3,right,1,0.673199774648,right,0.9024301804901556,0.22582648345563824,9,0,0
102,nb2TestingBlock,4,4,right,1,0.741753089202,right,0.9024301804901556,0.22582648345563824,9,0,0
102,nb2TestingBlock,8,4,right,1,0.697240338028,right,0.9024301804901556,0.22582648345563824,9,0,0
102,nb2TestingBlock,4,0,left,1,0.964988694836,left,0.9024301804901556,0.22582648345563824,9,0,0
102,nb2TestingBlock,8,0,left,1,1.21704623474,left,0.9024301804901556,0.22582648345563824,9,0,0
102,nb2TestingBlock,2,2,right,1,0.644373934272,right,0.9024301804901556,0.22582648345563824,9,0,0
102,nb2TestingBlock,5,3,right,1,0.935717558686,right,0.9024301804901556,0.22582648345563824,9,0,0
102,nb2TestingBlock,2,0,left,0,1.02769757746,right,0.9024301804901556,0.22582648345563824,9,0,0
102,nb2TestingBlock,2,3,right,1,1.02252589671,right,0.9024301804901556,0.22582648345563824,9,0,0
102,nb2TestingBlock,13,4,right,1,1.22622888263,right,0.9024301804901556,0.22582648345563824,9,0,0
102,nb2TestingBlock,2,0,left,1,0.66950970892,left,0.9024301804901556,0.22582648345563824,9,0,0
102,nb2TestingBlock,13,0,left,0,1.01619830986,right,0.9024301804901556,0.22582648345563824,9,0,0
102,nb2TestingBlock,14,3,right,1,1.41194907042,right,0.9024301804901556,0.22582648345563824,9,0,0
102,nb2TestingBlock,13,0,left,1,0.720048375587,left,0.9024301804901556,0.22582648345563824,9,0,0
102,nb2TestingBlock,12,2,right,1,0.772641352112,right,0.9024301804901556,0.22582648345563824,9,0,0
102,nb2TestingBlock,12,1,right,1,0.895979568075,right,0.9024301804901556,0.22582648345563824,9,0,0
102,nb2TestingBlock,1,4,right,1,0.963564469484,right,0.9024301804901556,0.22582648345563824,9,0,0
102,nb2TestingBlock,12,0,left,1,0.503777051643,left,0.9024301804901556,0.22582648345563824,9,0,0
102,nb2TestingBlock,0,1,right,1,0.939068394366,right,0.9024301804901556,0.22582648345563824,9,0,0
102,nb2TestingBlock,12,0,left,1,0.534969389671,left,0.9024301804901556,0.22582648345563824,9,0,0
102,nb2TestingBlock,0,0,left,0,0.762715342723,right,0.9024301804901556,0.22582648345563824,9,0,0
102,nb2TestingBlock,12,0,left,1,0.807133446009,left,0.9024301804901556,0.22582648345563824,9,0,0
103,nb1TestingBlock,11,0,left,1,0.661544262911,left,0.8969223812208666,0.20198847169381032,3,0,0
103,nb1TestingBlock,7,4,right,1,0.797113089202,right,0.8969223812208666,0.20198847169381032,3,0,0
103,nb1TestingBlock,8,1,right,0,0.956191549296,left,0.8969223812208666,0.20198847169381032,3,0,0
103,nb1TestingBlock,12,4,right,1,0.94706629108,right,0.8969223812208666,0.20198847169381032,3,0,0
103,nb1TestingBlock,12,0,left,1,0.770023661972,left,0.8969223812208666,0.20198847169381032,3,0,0
103,nb1TestingBlock,0,3,right,1,0.920673051643,right,0.8969223812208666,0.20198847169381032,3,0,0
103,nb1TestingBlock,0,0,left,1,0.799964544601,left,0.8969223812208666,0.20198847169381032,3,0,0
103,nb1TestingBlock,1,1,right,0,0.935312826291,left,0.8969223812208666,0.20198847169381032,3,0,0
103,nb1TestingBlock,3,2,right,1,0.886080901409,right,0.8969223812208666,0.20198847169381032,3,0,0
103,nb1TestingBlock,2,1,right,0,1.54127744601,left,0.8969223812208666,0.20198847169381032,3,1,0
103,nb1TestingBlock,6,4,right,1,0.823222685446,right,0.8969223812208666,0.20198847169381032,3,0,0
103,nb1TestingBlock,6,0,left,0,0.430203492958,right,0.8969223812208666,0.20198847169381032,3,0,0
103,nb1TestingBlock,6,0,left,1,0.693082441315,left,0.8969223812208666,0.20198847169381032,3,0,0
103,nb1TestingBlock,10,4,right,1,0.803430760563,right,0.8969223812208666,0.20198847169381032,3,0,0
103,nb1TestingBlock,8,2,right,1,0.99486287324,right,0.8969223812208666,0.20198847169381032,3,0,0
103,nb1TestingBlock,8,0,left,1,0.735332056338,left,0.8969223812208666,0.20198847169381032,3,0,0
103,nb1TestingBlock,6,2,right,1,0.993138178404,right,0.8969223812208666,0.20198847169381032,3,0,0
103,nb1TestingBlock,9,3,right,1,0.792132206573,right,0.8969223812208666,0.20198847169381032,3,0,0
103,nb1TestingBlock,9,0,left,1,1.13510490141,left,0.8969223812208666,0.20198847169381032,3,0,0
103,nb1TestingBlock,5,4,right,1,0.776546253521,right,0.8969223812208666,0.20198847169381032,3,0,0
103,nb1TestingBlock,4,1,right,0,0.799931793427,left,0.8969223812208666,0.20198847169381032,3,0,0
103,nb1TestingBlock,4,0,left,1,0.894845295775,left,0.8969223812208666,0.20198847169381032,3,0,0
103,nb1TestingBlock,2,2,right,1,1.14967256338,right,0.8969223812208666,0.20198847169381032,3,0,0
103,nb1TestingBlock,14,3,right,1,0.838736225352,right,0.8969223812208666,0.20198847169381032,3,0,0
103,nb1TestingBlock,11,3,right,1,1.03638985915,right,0.8969223812208666,0.20198847169381032,3,0,0
103,nb1TestingBlock,13,2,right,1,1.15373551174,right,0.8969223812208666,0.20198847169381032,3,0,0
103,nb1TestingBlock,13,0,left,1,0.73120570892,left,0.8969223812208666,0.20198847169381032,3,0,0
103,nb1TestingBlock,14,1,right,1,0.938469558685,right,0.8969223812208666,0.20198847169381032,3,0,0
103,nb1TestingBlock,2,3,right,1,1.16085183099,right,0.8969223812208666,0.20198847169381032,3,0,0
103,nb1TestingBlock,2,0,left,1,0.811529615024,left,0.8969223812208666,0.20198847169381032,3,0,0
103,nb2TestingBlock,3,0,left,1,1.00444153991,left,0.6205013266562223,0.5364443882446411,9,0,0
103,nb2TestingBlock,9,3,right,1,1.17755402817,right,0.6205013266562223,0.5364443882446411,9,0,0
103,nb2TestingBlock,2,1,right,1,3.74309438498,right,0.6205013266562223,0.5364443882446411,9,1,0
103,nb2TestingBlock,9,0,left,1,1.77427770892,left,0.6205013266562223,0.5364443882446411,9,0,0
103,nb2TestingBlock,4,2,right,1,2.33176758685,right,0.6205013266562223,0.5364443882446411,9,1,0
103,nb2TestingBlock,10,1,right,0,1.05066306103,left,0.6205013266562223,0.5364443882446411,9,0,0
103,nb2TestingBlock,6,2,right,1,1.2204051831,right,0.6205013266562223,0.5364443882446411,9,0,0
103,nb2TestingBlock,6,4,right,1,0.783773746479,right,0.6205013266562223,0.5364443882446411,9,0,0
103,nb2TestingBlock,7,1,right,0,0.827839399061,left,0.6205013266562223,0.5364443882446411,9,0,0
103,nb2TestingBlock,6,0,left,0,0.655227793427,right,0.6205013266562223,0.5364443882446411,9,0,0
103,nb2TestingBlock,5,2,right,1,0.507266103286,right,0.6205013266562223,0.5364443882446411,9,0,0
103,nb2TestingBlock,10,4,right,0,0.327226591549,left,0.6205013266562223,0.5364443882446411,9,0,0
103,nb2TestingBlock,2,3,right,0,1.05913239437,left,0.6205013266562223,0.5364443882446411,9,0,0
103,nb2TestingBlock,13,3,right,0,0.700506140845,left,0.6205013266562223,0.5364443882446411,9,0,0
103,nb2TestingBlock,3,1,right,1,0.840554065728,right,0.6205013266562223,0.5364443882446411,9,0,0
103,nb2TestingBlock,1,3,right,0,0.61234058216,left,0.6205013266562223,0.5364443882446411,9,0,0
103,nb2TestingBlock,3,0,left,0,0.616373483568,right,0.6205013266562223,0.5364443882446411,9,0,0
103,nb2TestingBlock,1,0,left,1,0.411826779343,left,0.6205013266562223,0.5364443882446411,9,0,0
103,nb2TestingBlock,4,1,right,1,0.255850065728,right,0.6205013266562223,0.5364443882446411,9,0,0
103,nb2TestingBlock,1,0,left,1,0.267892882629,left,0.6205013266562223,0.5364443882446411,9,0,0
103,nb2TestingBlock,4,0,left,1,0.29580229108,left,0.6205013266562223,0.5364443882446411,9,0,0
103,nb2TestingBlock,5,4,right,0,0.739238159624,left,0.6205013266562223,0.5364443882446411,9,0,0
103,nb2TestingBlock,0,4,right,0,0.975242516432,left,0.6205013266562223,0.5364443882446411,9,0,0
103,nb2TestingBlock,5,0,left,1,1.01595733333,left,0.6205013266562223,0.5364443882446411,9,0,0
103,nb2TestingBlock,3,3,right,1,0.646083305164,right,0.6205013266562223,0.5364443882446411,9,0,0
103,nb2TestingBlock,1,4,right,0,0.362121615023,left,0.6205013266562223,0.5364443882446411,9,0,0
103,nb2TestingBlock,1,2,right,1,0.294013295775,right,0.6205013266562223,0.5364443882446411,9,0,0
103,nb2TestingBlock,12,4,right,0,0.321884544601,left,0.6205013266562223,0.5364443882446411,9,0,0
103,nb2TestingBlock,14,2,right,0,0.517432187793,left,0.6205013266562223,0.5364443882446411,9,0,0
103,nb2TestingBlock,11,1,right,1,0.377418215962,right,0.6205013266562223,0.5364443882446411,9,0,0
103,nb2TestingBlock,14,0,left,1,0.300983586854,left,0.6205013266562223,0.5364443882446411,9,0,0
103,nb2TestingBlock,14,3,right,1,0.312916431925,right,0.6205013266562223,0.5364443882446411,9,0,0
103,nb2TestingBlock,12,2,right,1,0.708947530517,right,0.6205013266562223,0.5364443882446411,9,0,0
103,nb2TestingBlock,0,1,right,0,0.304861446009,left,0.6205013266562223,0.5364443882446411,9,0,0
103,nb2TestingBlock,8,4,right,0,0.372220093897,left,0.6205013266562223,0.5364443882446411,9,0,0
103,nb2TestingBlock,0,0,left,0,0.527927586855,right,0.6205013266562223,0.5364443882446411,9,0,0
103,nb2TestingBlock,11,3,right,0,0.340185840376,left,0.6205013266562223,0.5364443882446411,9,0,0
103,nb2TestingBlock,13,2,right,1,0.744199211268,right,0.6205013266562223,0.5364443882446411,9,0,0
103,nb2TestingBlock,11,0,left,0,0.667644093897,right,0.6205013266562223,0.5364443882446411,9,0,0
103,nb2TestingBlock,11,2,right,0,0.591610892019,left,0.6205013266562223,0.5364443882446411,9,0,0
103,nb2TestingBlock,11,0,left,1,0.627371568075,left,0.6205013266562223,0.5364443882446411,9,0,0
103,nb2TestingBlock,8,3,right,1,0.535079962441,right,0.6205013266562223,0.5364443882446411,9,0,0
103,nb2TestingBlock,9,2,right,0,0.259016713615,left,0.6205013266562223,0.5364443882446411,9,0,0
103,nb2TestingBlock,9,1,right,0,0.343027079812,left,0.6205013266562223,0.5364443882446411,9,0,0
103,nb2TestingBlock,7,2,right,1,0.850452732394,right,0.6205013266562223,0.5364443882446411,9,0,0
103,nb2TestingBlock,9,0,left,1,0.438869633803,left,0.6205013266562223,0.5364443882446411,9,0,0
103,nb2TestingBlock,7,0,left,1,0.978425089202,left,0.6205013266562223,0.5364443882446411,9,0,0
103,nb2TestingBlock,8,1,right,1,0.678404507042,right,0.6205013266562223,0.5364443882446411,9,0,0
103,nb2TestingBlock,3,4,right,0,0.482312713615,left,0.6205013266562223,0.5364443882446411,9,0,0
103,nb2TestingBlock,8,0,left,0,0.757827906103,right,0.6205013266562223,0.5364443882446411,9,0,0
103,nb2TestingBlock,6,3,right,0,0.521725596244,left,0.6205013266562223,0.5364443882446411,9,0,0
103,nb2TestingBlock,10,2,right,1,0.45369029108,right,0.6205013266562223,0.5364443882446411,9,0,0
103,nb2TestingBlock,6,0,left,1,0.569655286385,left,0.6205013266562223,0.5364443882446411,9,0,0
103,nb2TestingBlock,10,0,left,0,0.533700507042,right,0.6205013266562223,0.5364443882446411,9,0,0
103,nb2TestingBlock,5,1,right,1,0.369096112676,right,0.6205013266562223,0.5364443882446411,9,0,0
103,nb2TestingBlock,10,0,left,1,0.373004319249,left,0.6205013266562223,0.5364443882446411,9,0,0
103,nb2TestingBlock,5,0,left,1,0.281054347418,left,0.6205013266562223,0.5364443882446411,9,0,0
103,nb2TestingBlock,7,3,right,0,0.364555117371,left,0.6205013266562223,0.5364443882446411,9,0,0
103,nb2TestingBlock,3,2,right,1,0.336447699531,right,0.6205013266562223,0.5364443882446411,9,0,0
103,nb2TestingBlock,10,3,right,0,0.251951474178,left,0.6205013266562223,0.5364443882446411,9,0,0
103,nb2TestingBlock,7,4,right,0,0.272421859155,left,0.6205013266562223,0.5364443882446411,9,0,0
103,nb2TestingBlock,14,4,right,1,0.571660018779,right,0.6205013266562223,0.5364443882446411,9,0,0
103,nb2TestingBlock,6,1,right,1,0.607905352113,right,0.6205013266562223,0.5364443882446411,9,0,0
103,nb2TestingBlock,14,0,left,0,3.01983188732,right,0.6205013266562223,0.5364443882446411,9,1,0
103,nb2TestingBlock,2,4,right,1,0.463485896714,right,0.6205013266562223,0.5364443882446411,9,0,0
103,nb2TestingBlock,13,1,right,1,0.539491154929,right,0.6205013266562223,0.5364443882446411,9,0,0
103,nb2TestingBlock,1,1,right,1,0.487350084507,right,0.6205013266562223,0.5364443882446411,9,0,0
103,nb2TestingBlock,0,2,right,0,0.226800375587,left,0.6205013266562223,0.5364443882446411,9,0,0
103,nb2TestingBlock,4,3,right,0,0.350766873239,left,0.6205013266562223,0.5364443882446411,9,0,0
103,nb2TestingBlock,4,4,right,0,0.498685896714,left,0.6205013266562223,0.5364443882446411,9,0,0
103,nb2TestingBlock,8,4,right,1,0.878208901408,right,0.6205013266562223,0.5364443882446411,9,0,0
103,nb2TestingBlock,4,0,left,1,0.298200938967,left,0.6205013266562223,0.5364443882446411,9,0,0
103,nb2TestingBlock,8,0,left,1,0.294190272301,left,0.6205013266562223,0.5364443882446411,9,0,0
103,nb2TestingBlock,2,2,right,0,0.330092769953,left,0.6205013266562223,0.5364443882446411,9,0,0
103,nb2TestingBlock,5,3,right,1,0.542108244131,right,0.6205013266562223,0.5364443882446411,9,0,0
103,nb2TestingBlock,2,0,left,1,0.721538704225,left,0.6205013266562223,0.5364443882446411,9,0,0
103,nb2TestingBlock,2,3,right,0,0.685114892019,left,0.6205013266562223,0.5364443882446411,9,0,0
103,nb2TestingBlock,13,4,right,1,0.505742723005,right,0.6205013266562223,0.5364443882446411,9,0,0
103,nb2TestingBlock,2,0,left,0,0.516906967136,right,0.6205013266562223,0.5364443882446411,9,0,0
103,nb2TestingBlock,13,0,left,1,0.296874366197,left,0.6205013266562223,0.5364443882446411,9,0,0
103,nb2TestingBlock,14,3,right,1,0.356835455399,right,0.6205013266562223,0.5364443882446411,9,0,0
103,nb2TestingBlock,13,0,left,1,0.288334723005,left,0.6205013266562223,0.5364443882446411,9,0,0
103,nb2TestingBlock,12,2,right,0,0.372315342723,left,0.6205013266562223,0.5364443882446411,9,0,0
103,nb2TestingBlock,12,1,right,0,0.328303173709,left,0.6205013266562223,0.5364443882446411,9,0,0
103,nb2TestingBlock,1,4,right,1,0.380278384977,right,0.6205013266562223,0.5364443882446411,9,0,0
103,nb2TestingBlock,12,0,left,1,0.327631624413,left,0.6205013266562223,0.5364443882446411,9,0,0
103,nb2TestingBlock,0,1,right,1,0.29958970892,right,0.6205013266562223,0.5364443882446411,9,0,0
103,nb2TestingBlock,12,0,left,1,0.263125633803,left,0.6205013266562223,0.5364443882446411,9,0,0
103,nb2TestingBlock,0,0,left,0,0.267839699531,right,0.6205013266562223,0.5364443882446411,9,0,0
103,nb2TestingBlock,12,0,left,1,0.263115117371,left,0.6205013266562223,0.5364443882446411,9,0,0
104,nb1TestingBlock,11,0,left,1,0.65761141784,left,0.9158656901408333,0.4732317656095465,3,0,0
104,nb1TestingBlock,7,4,right,1,3.10496751174,right,0.9158656901408333,0.4732317656095465,3,1,0
104,nb1TestingBlock,8,1,right,0,0.939847812207,left,0.9158656901408333,0.4732317656095465,3,0,0
104,nb1TestingBlock,12,4,right,1,1.1312600939,right,0.9158656901408333,0.4732317656095465,3,0,0
104,nb1TestingBlock,12,0,left,1,0.797278046948,left,0.9158656901408333,0.4732317656095465,3,0,0
104,nb1TestingBlock,0,3,right,1,1.42021648826,right,0.9158656901408333,0.4732317656095465,3,0,0
104,nb1TestingBlock,0,0,left,1,0.858409464789,left,0.9158656901408333,0.4732317656095465,3,0,0
104,nb1TestingBlock,1,1,right,1,1.22587492958,right,0.9158656901408333,0.4732317656095465,3,0,0
104,nb1TestingBlock,3,2,right,1,1.28824157746,right,0.9158656901408333,0.4732317656095465,3,0,0
104,nb1TestingBlock,2,1,right,1,0.875224638498,right,0.9158656901408333,0.4732317656095465,3,0,0
104,nb1TestingBlock,6,4,right,1,0.810801877934,right,0.9158656901408333,0.4732317656095465,3,0,0
104,nb1TestingBlock,6,0,left,1,0.753557633803,left,0.9158656901408333,0.4732317656095465,3,0,0
104,nb1TestingBlock,6,0,left,1,0.776707004695,left,0.9158656901408333,0.4732317656095465,3,0,0
104,nb1TestingBlock,10,4,right,1,0.607422798122,right,0.9158656901408333,0.4732317656095465,3,0,0
104,nb1TestingBlock,8,2,right,1,0.550834779343,right,0.9158656901408333,0.4732317656095465,3,0,0
104,nb1TestingBlock,8,0,left,1,0.829565295775,left,0.9158656901408333,0.4732317656095465,3,0,0
104,nb1TestingBlock,6,2,right,1,0.780891643192,right,0.9158656901408333,0.4732317656095465,3,0,0
104,nb1TestingBlock,9,3,right,1,0.802603267605,right,0.9158656901408333,0.4732317656095465,3,0,0
104,nb1TestingBlock,9,0,left,1,0.586950610329,left,0.9158656901408333,0.4732317656095465,3,0,0
104,nb1TestingBlock,5,4,right,1,0.585729502347,right,0.9158656901408333,0.4732317656095465,3,0,0
104,nb1TestingBlock,4,1,right,1,0.920472338028,right,0.9158656901408333,0.4732317656095465,3,0,0
104,nb1TestingBlock,4,0,left,1,0.679974460094,left,0.9158656901408333,0.4732317656095465,3,0,0
104,nb1TestingBlock,2,2,right,1,0.878125070422,right,0.9158656901408333,0.4732317656095465,3,0,0
104,nb1TestingBlock,14,3,right,1,0.685564995305,right,0.9158656901408333,0.4732317656095465,3,0,0
104,nb1TestingBlock,11,3,right,1,0.836348394366,right,0.9158656901408333,0.4732317656095465,3,0,0
104,nb1TestingBlock,13,2,right,1,1.15606835681,right,0.9158656901408333,0.4732317656095465,3,0,0
104,nb1TestingBlock,13,0,left,1,0.49091515493,left,0.9158656901408333,0.4732317656095465,3,0,0
104,nb1TestingBlock,14,1,right,1,1.12213934272,right,0.9158656901408333,0.4732317656095465,3,0,0
104,nb1TestingBlock,2,3,right,1,0.740886535211,right,0.9158656901408333,0.4732317656095465,3,0,0
104,nb1TestingBlock,2,0,left,1,0.581479661972,left,0.9158656901408333,0.4732317656095465,3,0,0
104,nb2TestingBlock,3,0,left,1,0.625585877934,left,5.819790789774934,2.7602119614253273,9,0,0
104,nb2TestingBlock,9,3,right,1,6.52839571831,right,5.819790789774934,2.7602119614253273,9,0,0
104,nb2TestingBlock,2,1,right,0,4.24083470423,left,5.819790789774934,2.7602119614253273,9,0,0
104,nb2TestingBlock,9,0,left,1,1.89270805634,left,5.819790789774934,2.7602119614253273,9,0,0
104,nb2TestingBlock,4,2,right,1,2.10935857277,right,5.819790789774934,2.7602119614253273,9,0,0
104,nb2TestingBlock,10,1,right,1,4.6372765446,right,5.819790789774934,2.7602119614253273,9,0,0
104,nb2TestingBlock,6,2,right,0,4.92916702347,left,5.819790789774934,2.7602119614253273,9,0,0
104,nb2TestingBlock,6,4,right,1,5.73716552113,right,5.819790789774934,2.7602119614253273,9,0,0
104,nb2TestingBlock,7,1,right,1,2.93697021596,right,5.819790789774934,2.7602119614253273,9,0,0
104,nb2TestingBlock,6,0,left,1,2.71180229108,left,5.819790789774934,2.7602119614253273,9,0,0
104,nb2TestingBlock,5,2,right,1,3.37670880751,right,5.819790789774934,2.7602119614253273,9,0,0
104,nb2TestingBlock,10,4,right,1,5.598414723,right,5.819790789774934,2.7602119614253273,9,0,0
104,nb2TestingBlock,2,3,right,1,3.16368435681,right,5.819790789774934,2.7602119614253273,9,0,0
104,nb2TestingBlock,13,3,right,1,5.20985149296,right,5.819790789774934,2.7602119614253273,9,0,0
104,nb2TestingBlock,3,1,right,1,3.12668544601,right,5.819790789774934,2.7602119614253273,9,0,0
104,nb2TestingBlock,1,3,right,1,8.50253701408,right,5.819790789774934,2.7602119614253273,9,0,0
104,nb2TestingBlock,3,0,left,1,4.38499575587,left,5.819790789774934,2.7602119614253273,9,0,0
104,nb2TestingBlock,1,0,left,0,11.7425141784,right,5.819790789774934,2.7602119614253273,9,0,0
104,nb2TestingBlock,4,1,right,0,6.87297111737,left,5.819790789774934,2.7602119614253273,9,0,0
104,nb2TestingBlock,1,0,left,1,8.3153349108,left,5.819790789774934,2.7602119614253273,9,0,0
104,nb2TestingBlock,4,0,left,1,9.90125911737,left,5.819790789774934,2.7602119614253273,9,0,0
104,nb2TestingBlock,5,4,right,0,7.97618959624,left,5.819790789774934,2.7602119614253273,9,0,0
104,nb2TestingBlock,0,4,right,1,5.05550362441,right,5.819790789774934,2.7602119614253273,9,0,0
104,nb2TestingBlock,5,0,left,1,1.24278234742,left,5.819790789774934,2.7602119614253273,9,0,0
104,nb2TestingBlock,3,3,right,0,5.58110317371,left,5.819790789774934,2.7602119614253273,9,0,0
104,nb2TestingBlock,1,4,right,1,12.6033859906,right,5.819790789774934,2.7602119614253273,9,0,0
104,nb2TestingBlock,1,2,right,1,9.57099658216,right,5.819790789774934,2.7602119614253273,9,0,0
104,nb2TestingBlock,12,4,right,1,7.17073126761,right,5.819790789774934,2.7602119614253273,9,0,0
104,nb2TestingBlock,14,2,right,1,6.90577126761,right,5.819790789774934,2.7602119614253273,9,0,0
104,nb2TestingBlock,11,1,right,1,3.41961344601,right,5.819790789774934,2.7602119614253273,9,0,0
104,nb2TestingBlock,14,0,left,0,6.06375181221,right,5.819790789774934,2.7602119614253273,9,0,0
104,nb2TestingBlock,14,3,right,0,7.21857862911,left,5.819790789774934,2.7602119614253273,9,0,0
104,nb2TestingBlock,12,2,right,0,7.76750662911,left,5.819790789774934,2.7602119614253273,9,0,0
104,nb2TestingBlock,0,1,right,1,5.38302888263,right,5.819790789774934,2.7602119614253273,9,0,0
104,nb2TestingBlock,8,4,right,1,6.04484807512,right,5.819790789774934,2.7602119614253273,9,0,0
104,nb2TestingBlock,0,0,left,1,4.60942031925,left,5.819790789774934,2.7602119614253273,9,0,0
104,nb2TestingBlock,11,3,right,1,6.0943606385,right,5.819790789774934,2.7602119614253273,9,0,0
104,nb2TestingBlock,13,2,right,1,7.22468777465,right,5.819790789774934,2.7602119614253273,9,0,0
104,nb2TestingBlock,11,0,left,1,6.40566114554,left,5.819790789774934,2.7602119614253273,9,0,0
104,nb2TestingBlock,11,2,right,1,4.24327511737,right,5.819790789774934,2.7602119614253273,9,0,0
104,nb2TestingBlock,11,0,left,1,9.51866561502,left,5.819790789774934,2.7602119614253273,9,0,0
104,nb2TestingBlock,8,3,right,1,2.33652942723,right,5.819790789774934,2.7602119614253273,9,0,0
104,nb2TestingBlock,9,2,right,1,3.53546125822,right,5.819790789774934,2.7602119614253273,9,0,0
104,nb2TestingBlock,9,1,right,1,3.47113825352,right,5.819790789774934,2.7602119614253273,9,0,0
104,nb2TestingBlock,7,2,right,0,2.34499004695,left,5.819790789774934,2.7602119614253273,9,0,0
104,nb2TestingBlock,9,0,left,1,5.91999068545,left,5.819790789774934,2.7602119614253273,9,0,0
104,nb2TestingBlock,7,0,left,0,7.80880856338,right,5.819790789774934,2.7602119614253273,9,0,0
104,nb2TestingBlock,8,1,right,1,9.43067583099,right,5.819790789774934,2.7602119614253273,9,0,0
104,nb2TestingBlock,3,4,right,1,1.87575496714,right,5.819790789774934,2.7602119614253273,9,0,0
104,nb2TestingBlock,8,0,left,1,6.85345412207,left,5.819790789774934,2.7602119614253273,9,0,0
104,nb2TestingBlock,6,3,right,0,7.67329442254,left,5.819790789774934,2.7602119614253273,9,0,0
104,nb2TestingBlock,10,2,right,1,9.35615729577,right,5.819790789774934,2.7602119614253273,9,0,0
104,nb2TestingBlock,6,0,left,1,5.20541355869,left,5.819790789774934,2.7602119614253273,9,0,0
104,nb2TestingBlock,10,0,left,1,10.0256036056,left,5.819790789774934,2.7602119614253273,9,0,0
104,nb2TestingBlock,5,1,right,1,2.89665021596,right,5.819790789774934,2.7602119614253273,9,0,0
104,nb2TestingBlock,10,0,left,0,8.20863579343,right,5.819790789774934,2.7602119614253273,9,0,0
104,nb2TestingBlock,5,0,left,1,6.58334647887,left,5.819790789774934,2.7602119614253273,9,0,0
104,nb2TestingBlock,7,3,right,1,9.6049781784,right,5.819790789774934,2.7602119614253273,9,0,0
104,nb2TestingBlock,3,2,right,1,2.50007947418,right,5.819790789774934,2.7602119614253273,9,0,0
104,nb2TestingBlock,10,3,right,1,2.98058997183,right,5.819790789774934,2.7602119614253273,9,0,0
104,nb2TestingBlock,7,4,right,0,8.05781123005,left,5.819790789774934,2.7602119614253273,9,0,0
104,nb2TestingBlock,14,4,right,1,7.51805626291,right,5.819790789774934,2.7602119614253273,9,0,0
104,nb2TestingBlock,6,1,right,1,7.29512323005,right,5.819790789774934,2.7602119614253273,9,0,0
104,nb2TestingBlock,14,0,left,0,8.18434283568,right,5.819790789774934,2.7602119614253273,9,0,0
104,nb2TestingBlock,2,4,right,0,1.2637548169,left,5.819790789774934,2.7602119614253273,9,0,0
104,nb2TestingBlock,13,1,right,1,1.77705134272,right,5.819790789774934,2.7602119614253273,9,0,0
104,nb2TestingBlock,1,1,right,1,4.87842914554,right,5.819790789774934,2.7602119614253273,9,0,0
104,nb2TestingBlock,0,2,right,1,8.34511534272,right,5.819790789774934,2.7602119614253273,9,0,0
104,nb2TestingBlock,4,3,right,1,3.36904503286,right,5.819790789774934,2.7602119614253273,9,0,0
104,nb2TestingBlock,4,4,right,1,14.6151695023,right,5.819790789774934,2.7602119614253273,9,1,0
104,nb2TestingBlock,8,4,right,1,4.55840510798,right,5.819790789774934,2.7602119614253273,9,0,0
104,nb2TestingBlock,4,0,left,1,6.38149047887,left,5.819790789774934,2.7602119614253273,9,0,0
104,nb2TestingBlock,8,0,left,1,4.82018674178,left,5.819790789774934,2.7602119614253273,9,0,0
104,nb2TestingBlock,2,2,right,1,8.05646212207,right,5.819790789774934,2.7602119614253273,9,0,0
104,nb2TestingBlock,5,3,right,1,7.23669904225,right,5.819790789774934,2.7602119614253273,9,0,0
104,nb2TestingBlock,2,0,left,1,9.15315290141,left,5.819790789774934,2.7602119614253273,9,0,0
104,nb2TestingBlock,2,3,right,1,2.65736953991,right,5.819790789774934,2.7602119614253273,9,0,0
104,nb2TestingBlock,13,4,right,1,7.01197941784,right,5.819790789774934,2.7602119614253273,9,0,0
104,nb2TestingBlock,2,0,left,1,4.61688698592,left,5.819790789774934,2.7602119614253273,9,0,0
104,nb2TestingBlock,13,0,left,1,3.64525941784,left,5.819790789774934,2.7602119614253273,9,0,0
104,nb2TestingBlock,14,3,right,1,5.20068476995,right,5.819790789774934,2.7602119614253273,9,0,0
104,nb2TestingBlock,13,0,left,1,3.76604003756,left,5.819790789774934,2.7602119614253273,9,0,0
104,nb2TestingBlock,12,2,right,1,4.86022520188,right,5.819790789774934,2.7602119614253273,9,0,0
104,nb2TestingBlock,12,1,right,0,9.55188852582,left,5.819790789774934,2.7602119614253273,9,0,0
104,nb2TestingBlock,1,4,right,1,6.29569051643,right,5.819790789774934,2.7602119614253273,9,0,0
104,nb2TestingBlock,12,0,left,0,9.58554922066,right,5.819790789774934,2.7602119614253273,9,0,0
104,nb2TestingBlock,0,1,right,1,6.17668446948,right,5.819790789774934,2.7602119614253273,9,0,0
104,nb2TestingBlock,12,0,left,1,3.40738944601,left,5.819790789774934,2.7602119614253273,9,0,0
104,nb2TestingBlock,0,0,left,1,3.9319364507,left,5.819790789774934,2.7602119614253273,9,0,0
104,nb2TestingBlock,12,0,left,1,2.30765641315,left,5.819790789774934,2.7602119614253273,9,0,0
105,nb1TestingBlock,11,0,left,1,0.764102309859,left,0.6413174785602667,0.13066647266849613,3,0,0
105,nb1TestingBlock,7,4,right,1,0.970969539906,right,0.6413174785602667,0.13066647266849613,3,0,0
105,nb1TestingBlock,8,1,right,1,0.553730704225,right,0.6413174785602667,0.13066647266849613,3,0,0
105,nb1TestingBlock,12,4,right,1,0.816767098592,right,0.6413174785602667,0.13066647266849613,3,0,0
105,nb1TestingBlock,12,0,left,1,0.519781558685,left,0.6413174785602667,0.13066647266849613,3,0,0
105,nb1TestingBlock,0,3,right,1,0.58244657277,right,0.6413174785602667,0.13066647266849613,3,0,0
105,nb1TestingBlock,0,0,left,1,0.950305652582,left,0.6413174785602667,0.13066647266849613,3,0,0
105,nb1TestingBlock,1,1,right,1,0.748522366197,right,0.6413174785602667,0.13066647266849613,3,0,0
105,nb1TestingBlock,3,2,right,1,0.691751661972,right,0.6413174785602667,0.13066647266849613,3,0,0
105,nb1TestingBlock,2,1,right,0,0.58693829108,left,0.6413174785602667,0.13066647266849613,3,0,0
105,nb1TestingBlock,6,4,right,1,0.546150760563,right,0.6413174785602667,0.13066647266849613,3,0,0
105,nb1TestingBlock,6,0,left,1,0.38505885446,left,0.6413174785602667,0.13066647266849613,3,0,0
105,nb1TestingBlock,6,0,left,1,0.559931492958,left,0.6413174785602667,0.13066647266849613,3,0,0
105,nb1TestingBlock,10,4,right,1,0.500802704225,right,0.6413174785602667,0.13066647266849613,3,0,0
105,nb1TestingBlock,8,2,right,1,0.58994028169,right,0.6413174785602667,0.13066647266849613,3,0,0
105,nb1TestingBlock,8,0,left,1,0.613131117371,left,0.6413174785602667,0.13066647266849613,3,0,0
105,nb1TestingBlock,6,2,right,1,0.611986028169,right,0.6413174785602667,0.13066647266849613,3,0,0
105,nb1TestingBlock,9,3,right,0,0.618844544601,left,0.6413174785602667,0.13066647266849613,3,0,0
105,nb1TestingBlock,9,0,left,1,0.553624338028,left,0.6413174785602667,0.13066647266849613,3,0,0
105,nb1TestingBlock,5,4,right,1,0.593298028169,right,0.6413174785602667,0.13066647266849613,3,0,0
105,nb1TestingBlock,4,1,right,1,0.64794170892,right,0.6413174785602667,0.13066647266849613,3,0,0
105,nb1TestingBlock,4,0,left,1,0.662881953052,left,0.6413174785602667,0.13066647266849613,3,0,0
105,nb1TestingBlock,2,2,right,1,0.636226403756,right,0.6413174785602667,0.13066647266849613,3,0,0
105,nb1TestingBlock,14,3,right,1,0.707788319249,right,0.6413174785602667,0.13066647266849613,3,0,0
105,nb1TestingBlock,11,3,right,1,0.642453633803,right,0.6413174785602667,0.13066647266849613,3,0,0
105,nb1TestingBlock,13,2,right,1,0.530081953052,right,0.6413174785602667,0.13066647266849613,3,0,0
105,nb1TestingBlock,13,0,left,1,0.448830798122,left,0.6413174785602667,0.13066647266849613,3,0,0
105,nb1TestingBlock,14,1,right,1,0.791354892019,right,0.6413174785602667,0.13066647266849613,3,0,0
105,nb1TestingBlock,2,3,right,1,0.68642403755900006,right,0.6413174785602667,0.13066647266849613,3,0,0
105,nb1TestingBlock,2,0,left,1,0.727456751174,left,0.6413174785602667,0.13066647266849613,3,0,0
105,nb2TestingBlock,3,0,left,1,0.567707643193,left,0.7695025944706,0.23631910004694964,9,0,0
105,nb2TestingBlock,9,3,right,1,0.695669483568,right,0.7695025944706,0.23631910004694964,9,0,0
105,nb2TestingBlock,2,1,right,0,1.01969517371,left,0.7695025944706,0.23631910004694964,9,0,0
105,nb2TestingBlock,9,0,left,1,0.806111248826,left,0.7695025944706,0.23631910004694964,9,0,0
105,nb2TestingBlock,4,2,right,1,0.850055211268,right,0.7695025944706,0.23631910004694964,9,0,0
105,nb2TestingBlock,10,1,right,0,0.909973032864,left,0.7695025944706,0.23631910004694964,9,0,0
105,nb2TestingBlock,6,2,right,1,0.689997521127,right,0.7695025944706,0.23631910004694964,9,0,0
105,nb2TestingBlock,6,4,right,0,0.813942384976,left,0.7695025944706,0.23631910004694964,9,0,0
105,nb2TestingBlock,7,1,right,1,0.705921502348,right,0.7695025944706,0.23631910004694964,9,0,0
105,nb2TestingBlock,6,0,left,1,0.733459230047,left,0.7695025944706,0.23631910004694964,9,0,0
105,nb2TestingBlock,5,2,right,1,0.881333483568,right,0.7695025944706,0.23631910004694964,9,0,0
105,nb2TestingBlock,10,4,right,1,1.02135947418,right,0.7695025944706,0.23631910004694964,9,0,0
105,nb2TestingBlock,2,3,right,1,1.11974249765,right,0.7695025944706,0.23631910004694964,9,0,0
105,nb2TestingBlock,13,3,right,1,0.831405070423,right,0.7695025944706,0.23631910004694964,9,0,0
105,nb2TestingBlock,3,1,right,0,0.995340319249,left,0.7695025944706,0.23631910004694964,9,0,0
105,nb2TestingBlock,1,3,right,0,0.663375023474,left,0.7695025944706,0.23631910004694964,9,0,0
105,nb2TestingBlock,3,0,left,1,0.899358948357,left,0.7695025944706,0.23631910004694964,9,0,0
105,nb2TestingBlock,1,0,left,1,0.742797220657,left,0.7695025944706,0.23631910004694964,9,0,0
105,nb2TestingBlock,4,1,right,1,0.730679887324,right,0.7695025944706,0.23631910004694964,9,0,0
105,nb2TestingBlock,1,0,left,1,0.686174948357,left,0.7695025944706,0.23631910004694964,9,0,0
105,nb2TestingBlock,4,0,left,0,0.690144751174,right,0.7695025944706,0.23631910004694964,9,0,0
105,nb2TestingBlock,5,4,right,1,0.766195981221,right,0.7695025944706,0.23631910004694964,9,0,0
105,nb2TestingBlock,0,4,right,1,1.03413213146,right,0.7695025944706,0.23631910004694964,9,0,0
105,nb2TestingBlock,5,0,left,1,1.10852537089,left,0.7695025944706,0.23631910004694964,9,0,0
105,nb2TestingBlock,3,3,right,1,0.884202666667,right,0.7695025944706,0.23631910004694964,9,0,0
105,nb2TestingBlock,1,4,right,0,0.912234967136,left,0.7695025944706,0.23631910004694964,9,0,0
105,nb2TestingBlock,1,2,right,0,0.628175624413,left,0.7695025944706,0.23631910004694964,9,0,0
105,nb2TestingBlock,12,4,right,1,0.624117784037,right,0.7695025944706,0.23631910004694964,9,0,0
105,nb2TestingBlock,14,2,right,1,0.835595117371,right,0.7695025944706,0.23631910004694964,9,0,0
105,nb2TestingBlock,11,1,right,1,0.759521051643,right,0.7695025944706,0.23631910004694964,9,0,0
105,nb2TestingBlock,14,0,left,1,0.539565070422,left,0.7695025944706,0.23631910004694964,9,0,0
105,nb2TestingBlock,14,3,right,0,0.67150512676,left,0.7695025944706,0.23631910004694964,9,0,0
105,nb2TestingBlock,12,2,right,0,0.55488,left,0.7695025944706,0.23631910004694964,9,0,0
105,nb2TestingBlock,0,1,right,1,0.750390985915,right,0.7695025944706,0.23631910004694964,9,0,0
105,nb2TestingBlock,8,4,right,1,0.610415774648,right,0.7695025944706,0.23631910004694964,9,0,0
105,nb2TestingBlock,0,0,left,1,0.518359737089,left,0.7695025944706,0.23631910004694964,9,0,0
105,nb2TestingBlock,11,3,right,1,0.738254723005,right,0.7695025944706,0.23631910004694964,9,0,0
105,nb2TestingBlock,13,2,right,1,1.01591797183,right,0.7695025944706,0.23631910004694964,9,0,0
105,nb2TestingBlock,11,0,left,1,0.577247849765,left,0.7695025944706,0.23631910004694964,9,0,0
105,nb2TestingBlock,11,2,right,0,0.541149746479,left,0.7695025944706,0.23631910004694964,9,0,0
105,nb2TestingBlock,11,0,left,1,0.577225615024,left,0.7695025944706,0.23631910004694964,9,0,0
105,nb2TestingBlock,8,3,right,1,0.973068619718,right,0.7695025944706,0.23631910004694964,9,0,0
105,nb2TestingBlock,9,2,right,0,0.640562478873,left,0.7695025944706,0.23631910004694964,9,0,0
105,nb2TestingBlock,9,1,right,0,0.588500131455,left,0.7695025944706,0.23631910004694964,9,0,0
105,nb2TestingBlock,7,2,right,1,0.744514103286,right,0.7695025944706,0.23631910004694964,9,0,0
105,nb2TestingBlock,9,0,left,1,0.692431323944,left,0.7695025944706,0.23631910004694964,9,0,0
105,nb2TestingBlock,7,0,left,1,1.01574430047,left,0.7695025944706,0.23631910004694964,9,0,0
105,nb2TestingBlock,8,1,right,1,0.66736886385,right,0.7695025944706,0.23631910004694964,9,0,0
105,nb2TestingBlock,3,4,right,1,0.742701370892,right,0.7695025944706,0.23631910004694964,9,0,0
105,nb2TestingBlock,8,0,left,0,0.706758610329,right,0.7695025944706,0.23631910004694964,9,0,0
105,nb2TestingBlock,6,3,right,1,2.08676356808,right,0.7695025944706,0.23631910004694964,9,1,0
105,nb2TestingBlock,10,2,right,1,0.767866892019,right,0.7695025944706,0.23631910004694964,9,0,0
105,nb2TestingBlock,6,0,left,1,0.555273915493,left,0.7695025944706,0.23631910004694964,9,0,0
105,nb2TestingBlock,10,0,left,1,0.655355793427,left,0.7695025944706,0.23631910004694964,9,0,0
105,nb2TestingBlock,5,1,right,1,0.747030234742,right,0.7695025944706,0.23631910004694964,9,0,0
105,nb2TestingBlock,10,0,left,1,0.702720901408,left,0.7695025944706,0.23631910004694964,9,0,0
105,nb2TestingBlock,5,0,left,0,0.674714741784,right,0.7695025944706,0.23631910004694964,9,0,0
105,nb2TestingBlock,7,3,right,1,0.950670422535,right,0.7695025944706,0.23631910004694964,9,0,0
105,nb2TestingBlock,3,2,right,1,0.666651943662,right,0.7695025944706,0.23631910004694964,9,0,0
105,nb2TestingBlock,10,3,right,0,0.798081802817,left,0.7695025944706,0.23631910004694964,9,0,0
105,nb2TestingBlock,7,4,right,0,0.978066328639,left,0.7695025944706,0.23631910004694964,9,0,0
105,nb2TestingBlock,14,4,right,1,0.741552375587,right,0.7695025944706,0.23631910004694964,9,0,0
105,nb2TestingBlock,6,1,right,1,0.833497539906,right,0.7695025944706,0.23631910004694964,9,0,0
105,nb2TestingBlock,14,0,left,1,0.55700341784,left,0.7695025944706,0.23631910004694964,9,0,0
105,nb2TestingBlock,2,4,right,1,0.633490328639,right,0.7695025944706,0.23631910004694964,9,0,0
105,nb2TestingBlock,13,1,right,1,0.708795793427,right,0.7695025944706,0.23631910004694964,9,0,0
105,nb2TestingBlock,1,1,right,1,0.824839511737,right,0.7695025944706,0.23631910004694964,9,0,0
105,nb2TestingBlock,0,2,right,1,0.6365262723,right,0.7695025944706,0.23631910004694964,9,0,0
105,nb2TestingBlock,4,3,right,1,0.752812469484,right,0.7695025944706,0.23631910004694964,9,0,0
105,nb2TestingBlock,4,4,right,0,0.644820732394,left,0.7695025944706,0.23631910004694964,9,0,0
105,nb2TestingBlock,8,4,right,1,1.51226741784,right,0.7695025944706,0.23631910004694964,9,1,0
105,nb2TestingBlock,4,0,left,0,1.05635034742,right,0.7695025944706,0.23631910004694964,9,0,0
105,nb2TestingBlock,8,0,left,1,0.570248112676,left,0.7695025944706,0.23631910004694964,9,0,0
105,nb2TestingBlock,2,2,right,1,0.558142798122,right,0.7695025944706,0.23631910004694964,9,0,0
105,nb2TestingBlock,5,3,right,1,1.08219312676,right,0.7695025944706,0.23631910004694964,9,0,0
105,nb2TestingBlock,2,0,left,1,0.722382422535,left,0.7695025944706,0.23631910004694964,9,0,0
105,nb2TestingBlock,2,3,right,0,0.549834215962,left,0.7695025944706,0.23631910004694964,9,0,0
105,nb2TestingBlock,13,4,right,1,0.929861408451,right,0.7695025944706,0.23631910004694964,9,0,0
105,nb2TestingBlock,2,0,left,1,1.10979966197,left,0.7695025944706,0.23631910004694964,9,0,0
105,nb2TestingBlock,13,0,left,1,0.605545765258,left,0.7695025944706,0.23631910004694964,9,0,0
105,nb2TestingBlock,14,3,right,1,0.729438347418,right,0.7695025944706,0.23631910004694964,9,0,0
105,nb2TestingBlock,13,0,left,1,0.453427380282,left,0.7695025944706,0.23631910004694964,9,0,0
105,nb2TestingBlock,12,2,right,1,0.721462384976,right,0.7695025944706,0.23631910004694964,9,0,0
105,nb2TestingBlock,12,1,right,1,0.492843568075,right,0.7695025944706,0.23631910004694964,9,0,0
105,nb2TestingBlock,1,4,right,1,0.424814873239,right,0.7695025944706,0.23631910004694964,9,0,0
105,nb2TestingBlock,12,0,left,1,0.436319549296,left,0.7695025944706,0.23631910004694964,9,0,0
105,nb2TestingBlock,0,1,right,0,0.808843117371,left,0.7695025944706,0.23631910004694964,9,0,0
105,nb2TestingBlock,12,0,left,0,0.484296713615,right,0.7695025944706,0.23631910004694964,9,0,0
105,nb2TestingBlock,0,0,left,1,1.0961634554,left,0.7695025944706,0.23631910004694964,9,0,0
105,nb2TestingBlock,12,0,left,1,0.520956694836,left,0.7695025944706,0.23631910004694964,9,0,0
106,nb1TestingBlock,11,0,left,0,1.01438346986,right,0.8868337817342666,0.2539256994052782,3,0,0
106,nb1TestingBlock,7,4,right,1,0.826238249393,right,0.8868337817342666,0.2539256994052782,3,0,0
106,nb1TestingBlock,8,1,right,1,0.921896586848,right,0.8868337817342666,0.2539256994052782,3,0,0
106,nb1TestingBlock,12,4,right,1,0.912706730454,right,0.8868337817342666,0.2539256994052782,3,0,0
106,nb1TestingBlock,12,0,left,1,0.823544841752,left,0.8868337817342666,0.2539256994052782,3,0,0
106,nb1TestingBlock,0,3,right,1,1.16671874803,right,0.8868337817342666,0.2539256994052782,3,0,0
106,nb1TestingBlock,0,0,left,1,0.655120328978,left,0.8868337817342666,0.2539256994052782,3,0,0
106,nb1TestingBlock,1,1,right,1,0.990291833903,right,0.8868337817342666,0.2539256994052782,3,0,0
106,nb1TestingBlock,3,2,right,1,0.757033537793,right,0.8868337817342666,0.2539256994052782,3,0,0
106,nb1TestingBlock,2,1,right,1,0.875795868305,right,0.8868337817342666,0.2539256994052782,3,0,0
106,nb1TestingBlock,6,4,right,1,0.683411625641,right,0.8868337817342666,0.2539256994052782,3,0,0
106,nb1TestingBlock,6,0,left,1,1.5622728827,left,0.8868337817342666,0.2539256994052782,3,0,0
106,nb1TestingBlock,6,0,left,1,0.922592173494,left,0.8868337817342666,0.2539256994052782,3,0,0
106,nb1TestingBlock,10,4,right,1,0.945981011536,right,0.8868337817342666,0.2539256994052782,3,0,0
106,nb1TestingBlock,8,2,right,1,0.640517215995,right,0.8868337817342666,0.2539256994052782,3,0,0
106,nb1TestingBlock,8,0,left,1,1.37496236621,left,0.8868337817342666,0.2539256994052782,3,0,0
106,nb1TestingBlock,6,2,right,1,0.704240464454,right,0.8868337817342666,0.2539256994052782,3,0,0
106,nb1TestingBlock,9,3,right,0,0.533755032111,left,0.8868337817342666,0.2539256994052782,3,0,0
106,nb1TestingBlock,9,0,left,1,1.27069978721,left,0.8868337817342666,0.2539256994052782,3,0,0
106,nb1TestingBlock,5,4,right,1,0.762632183998,right,0.8868337817342666,0.2539256994052782,3,0,0
106,nb1TestingBlock,4,1,right,1,0.85750449352,right,0.8868337817342666,0.2539256994052782,3,0,0
106,nb1TestingBlock,4,0,left,1,1.05642845253,left,0.8868337817342666,0.2539256994052782,3,0,0
106,nb1TestingBlock,2,2,right,1,0.781722206431,right,0.8868337817342666,0.2539256994052782,3,0,0
106,nb1TestingBlock,14,3,right,1,1.3565435924,right,0.8868337817342666,0.2539256994052782,3,0,0
106,nb1TestingBlock,11,3,right,1,0.846034975839,right,0.8868337817342666,0.2539256994052782,3,0,0
106,nb1TestingBlock,13,2,right,1,0.61288034167,right,0.8868337817342666,0.2539256994052782,3,0,0
106,nb1TestingBlock,13,0,left,1,0.481913244871,left,0.8868337817342666,0.2539256994052782,3,0,0
106,nb1TestingBlock,14,1,right,1,0.681811926592,right,0.8868337817342666,0.2539256994052782,3,0,0
106,nb1TestingBlock,2,3,right,1,0.808327268859,right,0.8868337817342666,0.2539256994052782,3,0,0
106,nb1TestingBlock,2,0,left,1,0.777052010651,left,0.8868337817342666,0.2539256994052782,3,0,0
106,nb2TestingBlock,3,0,left,1,1.39999597371,left,1.6767017534790112,0.9639579786666573,9,0,0
106,nb2TestingBlock,9,3,right,1,0.974877153089,right,1.6767017534790112,0.9639579786666573,9,0,0
106,nb2TestingBlock,2,1,right,1,1.098804252,right,1.6767017534790112,0.9639579786666573,9,0,0
106,nb2TestingBlock,9,0,left,1,0.866585579993,left,1.6767017534790112,0.9639579786666573,9,0,0
106,nb2TestingBlock,4,2,right,1,3.15796276944,right,1.6767017534790112,0.9639579786666573,9,0,0
106,nb2TestingBlock,10,1,right,1,2.53280885399,right,1.6767017534790112,0.9639579786666573,9,0,0
106,nb2TestingBlock,6,2,right,1,2.3241118275,right,1.6767017534790112,0.9639579786666573,9,0,0
106,nb2TestingBlock,6,4,right,1,3.12366268585,right,1.6767017534790112,0.9639579786666573,9,0,0
106,nb2TestingBlock,7,1,right,1,3.79540918823,right,1.6767017534790112,0.9639579786666573,9,0,0
106,nb2TestingBlock,6,0,left,1,0.816977482223,left,1.6767017534790112,0.9639579786666573,9,0,0
106,nb2TestingBlock,5,2,right,1,1.34835039298,right,1.6767017534790112,0.9639579786666573,9,0,0
106,nb2TestingBlock,10,4,right,1,2.03456449666,right,1.6767017534790112,0.9639579786666573,9,0,0
106,nb2TestingBlock,2,3,right,1,2.93321496842,right,1.6767017534790112,0.9639579786666573,9,0,0
106,nb2TestingBlock,13,3,right,1,2.02858816042,right,1.6767017534790112,0.9639579786666573,9,0,0
106,nb2TestingBlock,3,1,right,1,1.29638300954,right,1.6767017534790112,0.9639579786666573,9,0,0
106,nb2TestingBlock,1,3,right,1,2.12045547554,right,1.6767017534790112,0.9639579786666573,9,0,0
106,nb2TestingBlock,3,0,left,1,1.37582681665,left,1.6767017534790112,0.9639579786666573,9,0,0
106,nb2TestingBlock,1,0,left,1,1.39751439699,left,1.6767017534790112,0.9639579786666573,9,0,0
106,nb2TestingBlock,4,1,right,1,5.11341818188,right,1.6767017534790112,0.9639579786666573,9,1,0
106,nb2TestingBlock,1,0,left,1,3.12205006661,left,1.6767017534790112,0.9639579786666573,9,0,0
106,nb2TestingBlock,4,0,left,1,1.44990664416,left,1.6767017534790112,0.9639579786666573,9,0,0
106,nb2TestingBlock,5,4,right,1,2.3317338346,right,1.6767017534790112,0.9639579786666573,9,0,0
106,nb2TestingBlock,0,4,right,1,5.37055327833,right,1.6767017534790112,0.9639579786666573,9,1,0
106,nb2TestingBlock,5,0,left,1,0.817311303718,left,1.6767017534790112,0.9639579786666573,9,0,0
106,nb2TestingBlock,3,3,right,1,1.53287916383,right,1.6767017534790112,0.9639579786666573,9,0,0
106,nb2TestingBlock,1,4,right,0,4.63594797793,left,1.6767017534790112,0.9639579786666573,9,1,0
106,nb2TestingBlock,1,2,right,1,3.02335849063,right,1.6767017534790112,0.9639579786666573,9,0,0
106,nb2TestingBlock,12,4,right,1,1.29133181857,right,1.6767017534790112,0.9639579786666573,9,0,0
106,nb2TestingBlock,14,2,right,1,1.50003485445,right,1.6767017534790112,0.9639579786666573,9,0,0
106,nb2TestingBlock,11,1,right,0,0.851519143205,left,1.6767017534790112,0.9639579786666573,9,0,0
106,nb2TestingBlock,14,0,left,1,1.65569422552,left,1.6767017534790112,0.9639579786666573,9,0,0
106,nb2TestingBlock,14,3,right,1,1.80994649842,right,1.6767017534790112,0.9639579786666573,9,0,0
106,nb2TestingBlock,12,2,right,1,1.4696916523,right,1.6767017534790112,0.9639579786666573,9,0,0
106,nb2TestingBlock,0,1,right,0,1.07899250209,left,1.6767017534790112,0.9639579786666573,9,0,0
106,nb2TestingBlock,8,4,right,1,0.90423499591,right,1.6767017534790112,0.9639579786666573,9,0,0
106,nb2TestingBlock,0,0,left,0,1.15619931457,right,1.6767017534790112,0.9639579786666573,9,0,0
106,nb2TestingBlock,11,3,right,1,2.49829994417,right,1.6767017534790112,0.9639579786666573,9,0,0
106,nb2TestingBlock,13,2,right,1,0.954276070077,right,1.6767017534790112,0.9639579786666573,9,0,0
106,nb2TestingBlock,11,0,left,1,0.982217920836,left,1.6767017534790112,0.9639579786666573,9,0,0
106,nb2TestingBlock,11,2,right,1,1.25021558679,right,1.6767017534790112,0.9639579786666573,9,0,0
106,nb2TestingBlock,11,0,left,1,1.13187992282,left,1.6767017534790112,0.9639579786666573,9,0,0
106,nb2TestingBlock,8,3,right,1,2.33079516821,right,1.6767017534790112,0.9639579786666573,9,0,0
106,nb2TestingBlock,9,2,right,1,1.55355476325,right,1.6767017534790112,0.9639579786666573,9,0,0
106,nb2TestingBlock,9,1,right,1,1.41550139628,right,1.6767017534790112,0.9639579786666573,9,0,0
106,nb2TestingBlock,7,2,right,1,1.62685066611,right,1.6767017534790112,0.9639579786666573,9,0,0
106,nb2TestingBlock,9,0,left,1,1.31006428242,left,1.6767017534790112,0.9639579786666573,9,0,0
106,nb2TestingBlock,7,0,left,1,1.75839796931,left,1.6767017534790112,0.9639579786666573,9,0,0
106,nb2TestingBlock,8,1,right,1,2.20430566631,right,1.6767017534790112,0.9639579786666573,9,0,0
106,nb2TestingBlock,3,4,right,1,1.51259267227,right,1.6767017534790112,0.9639579786666573,9,0,0
106,nb2TestingBlock,8,0,left,1,0.720206206135,left,1.6767017534790112,0.9639579786666573,9,0,0
106,nb2TestingBlock,6,3,right,1,2.03594064648,right,1.6767017534790112,0.9639579786666573,9,0,0
106,nb2TestingBlock,10,2,right,1,1.05486691309,right,1.6767017534790112,0.9639579786666573,9,0,0
106,nb2TestingBlock,6,0,left,0,0.84870404546,right,1.6767017534790112,0.9639579786666573,9,0,0
106,nb2TestingBlock,10,0,left,1,1.01577945066,left,1.6767017534790112,0.9639579786666573,9,0,0
106,nb2TestingBlock,5,1,right,1,2.19969496347,right,1.6767017534790112,0.9639579786666573,9,0,0
106,nb2TestingBlock,10,0,left,0,1.13190996975,right,1.6767017534790112,0.9639579786666573,9,0,0
106,nb2TestingBlock,5,0,left,1,1.8982829977,left,1.6767017534790112,0.9639579786666573,9,0,0
106,nb2TestingBlock,7,3,right,1,3.94654108649,right,1.6767017534790112,0.9639579786666573,9,0,0
106,nb2TestingBlock,3,2,right,1,1.17723337398,right,1.6767017534790112,0.9639579786666573,9,0,0
106,nb2TestingBlock,10,3,right,1,0.958727223669,right,1.6767017534790112,0.9639579786666573,9,0,0
106,nb2TestingBlock,7,4,right,1,1.77869016978,right,1.6767017534790112,0.9639579786666573,9,0,0
106,nb2TestingBlock,14,4,right,1,1.24823849818,right,1.6767017534790112,0.9639579786666573,9,0,0
106,nb2TestingBlock,6,1,right,1,1.04986830426,right,1.6767017534790112,0.9639579786666573,9,0,0
106,nb2TestingBlock,14,0,left,1,0.851704532821,left,1.6767017534790112,0.9639579786666573,9,0,0
106,nb2TestingBlock,2,4,right,1,0.911580571168,right,1.6767017534790112,0.9639579786666573,9,0,0
106,nb2TestingBlock,13,1,right,1,1.39466384386,right,1.6767017534790112,0.9639579786666573,9,0,0
106,nb2TestingBlock,1,1,right,1,1.11971241473,right,1.6767017534790112,0.9639579786666573,9,0,0
106,nb2TestingBlock,0,2,right,1,1.01596303746,right,1.6767017534790112,0.9639579786666573,9,0,0
106,nb2TestingBlock,4,3,right,1,1.14667022823,right,1.6767017534790112,0.9639579786666573,9,0,0
106,nb2TestingBlock,4,4,right,1,2.07335689815,right,1.6767017534790112,0.9639579786666573,9,0,0
106,nb2TestingBlock,8,4,right,1,1.19445748148,right,1.6767017534790112,0.9639579786666573,9,0,0
106,nb2TestingBlock,4,0,left,1,0.950927038219,left,1.6767017534790112,0.9639579786666573,9,0,0
106,nb2TestingBlock,8,0,left,1,1.5461875542,left,1.6767017534790112,0.9639579786666573,9,0,0
106,nb2TestingBlock,2,2,right,1,1.29693256806,right,1.6767017534790112,0.9639579786666573,9,0,0
106,nb2TestingBlock,5,3,right,1,1.95258893443,right,1.6767017534790112,0.9639579786666573,9,0,0
106,nb2TestingBlock,2,0,left,1,0.59108939986,left,1.6767017534790112,0.9639579786666573,9,0,0
106,nb2TestingBlock,2,3,right,1,0.826929629467,right,1.6767017534790112,0.9639579786666573,9,0,0
106,nb2TestingBlock,13,4,right,1,1.04622961991,right,1.6767017534790112,0.9639579786666573,9,0,0
106,nb2TestingBlock,2,0,left,1,0.785362994069,left,1.6767017534790112,0.9639579786666573,9,0,0
106,nb2TestingBlock,13,0,left,0,0.66082924745,right,1.6767017534790112,0.9639579786666573,9,0,0
106,nb2TestingBlock,14,3,right,1,2.44072910701,right,1.6767017534790112,0.9639579786666573,9,0,0
106,nb2TestingBlock,13,0,left,0,0.939657032216,right,1.6767017534790112,0.9639579786666573,9,0,0
106,nb2TestingBlock,12,2,right,1,0.879386477555,right,1.6767017534790112,0.9639579786666573,9,0,0
106,nb2TestingBlock,12,1,right,1,1.53935908677,right,1.6767017534790112,0.9639579786666573,9,0,0
106,nb2TestingBlock,1,4,right,1,0.785891820201,right,1.6767017534790112,0.9639579786666573,9,0,0
106,nb2TestingBlock,12,0,left,0,1.01531312216,right,1.6767017534790112,0.9639579786666573,9,0,0
106,nb2TestingBlock,0,1,right,1,2.07330401553,right,1.6767017534790112,0.9639579786666573,9,0,0
106,nb2TestingBlock,12,0,left,0,3.35444841932,right,1.6767017534790112,0.9639579786666573,9,0,0
106,nb2TestingBlock,0,0,left,1,1.3931005016,left,1.6767017534790112,0.9639579786666573,9,0,0
106,nb2TestingBlock,12,0,left,0,1.78224892928,right,1.6767017534790112,0.9639579786666573,9,0,0
109,nb1TestingBlock,11,0,left,1,0.501009126154,left,0.6227493221662,0.17337810729681635,3,0,0
109,nb1TestingBlock,7,4,right,1,0.547679821113,right,0.6227493221662,0.17337810729681635,3,0,0
109,nb1TestingBlock,8,1,right,1,0.802967555024,right,0.6227493221662,0.17337810729681635,3,0,0
109,nb1TestingBlock,12,4,right,1,0.593189202215,right,0.6227493221662,0.17337810729681635,3,0,0
109,nb1TestingBlock,12,0,left,1,0.312415962492,left,0.6227493221662,0.17337810729681635,3,0,0
109,nb1TestingBlock,0,3,right,1,0.535766814187,right,0.6227493221662,0.17337810729681635,3,0,0
109,nb1TestingBlock,0,0,left,1,0.494404510405,left,0.6227493221662,0.17337810729681635,3,0,0
109,nb1TestingBlock,1,1,right,1,0.485546675352,right,0.6227493221662,0.17337810729681635,3,0,0
109,nb1TestingBlock,3,2,right,1,0.508583356344,right,0.6227493221662,0.17337810729681635,3,0,0
109,nb1TestingBlock,2,1,right,1,0.843066986326,right,0.6227493221662,0.17337810729681635,3,0,0
109,nb1TestingBlock,6,4,right,1,0.786761442697,right,0.6227493221662,0.17337810729681635,3,0,0
109,nb1TestingBlock,6,0,left,1,0.529886629927,left,0.6227493221662,0.17337810729681635,3,0,0
109,nb1TestingBlock,6,0,left,1,0.552535705518,left,0.6227493221662,0.17337810729681635,3,0,0
109,nb1TestingBlock,10,4,right,1,0.575448593158,right,0.6227493221662,0.17337810729681635,3,0,0
109,nb1TestingBlock,8,2,right,1,0.742729168689,right,0.6227493221662,0.17337810729681635,3,0,0
109,nb1TestingBlock,8,0,left,1,0.701556160567,left,0.6227493221662,0.17337810729681635,3,0,0
109,nb1TestingBlock,6,2,right,1,0.572496181786,right,0.6227493221662,0.17337810729681635,3,0,0
109,nb1TestingBlock,9,3,right,0,0.449959992512,left,0.6227493221662,0.17337810729681635,3,0,0
109,nb1TestingBlock,9,0,left,1,0.570660013876,left,0.6227493221662,0.17337810729681635,3,0,0
109,nb1TestingBlock,5,4,right,1,0.832992551066,right,0.6227493221662,0.17337810729681635,3,0,0
109,nb1TestingBlock,4,1,right,1,0.688857726884,right,0.6227493221662,0.17337810729681635,3,0,0
109,nb1TestingBlock,4,0,left,1,0.53547235427,left,0.6227493221662,0.17337810729681635,3,0,0
109,nb1TestingBlock,2,2,right,1,0.470431266595,right,0.6227493221662,0.17337810729681635,3,0,0
109,nb1TestingBlock,14,3,right,1,0.717894178918,right,0.6227493221662,0.17337810729681635,3,0,0
109,nb1TestingBlock,11,3,right,1,1.05235978074,right,0.6227493221662,0.17337810729681635,3,0,0
109,nb1TestingBlock,13,2,right,1,0.882048371351,right,0.6227493221662,0.17337810729681635,3,0,0
109,nb1TestingBlock,13,0,left,1,0.394021021433,left,0.6227493221662,0.17337810729681635,3,0,0
109,nb1TestingBlock,14,1,right,1,0.950262715335,right,0.6227493221662,0.17337810729681635,3,0,0
109,nb1TestingBlock,2,3,right,1,0.517151238519,right,0.6227493221662,0.17337810729681635,3,0,0
109,nb1TestingBlock,2,0,left,1,0.534324561533,left,0.6227493221662,0.17337810729681635,3,0,0
109,nb2TestingBlock,3,0,left,1,0.96644388871,left,1.2319854580872,0.5425070046153758,9,0,0
109,nb2TestingBlock,9,3,right,1,4.10089158256,right,1.2319854580872,0.5425070046153758,9,1,0
109,nb2TestingBlock,2,1,right,1,1.50937839812,right,1.2319854580872,0.5425070046153758,9,0,0
109,nb2TestingBlock,9,0,left,1,0.765342488433,left,1.2319854580872,0.5425070046153758,9,0,0
109,nb2TestingBlock,4,2,right,1,2.25775909393,right,1.2319854580872,0.5425070046153758,9,0,0
109,nb2TestingBlock,10,1,right,0,1.3873536076,left,1.2319854580872,0.5425070046153758,9,0,0
109,nb2TestingBlock,6,2,right,1,1.88790271525,right,1.2319854580872,0.5425070046153758,9,0,0
109,nb2TestingBlock,6,4,right,1,1.72869755271,right,1.2319854580872,0.5425070046153758,9,0,0
109,nb2TestingBlock,7,1,right,0,2.01669587729,left,1.2319854580872,0.5425070046153758,9,0,0
109,nb2TestingBlock,6,0,left,1,1.28404504996,left,1.2319854580872,0.5425070046153758,9,0,0
109,nb2TestingBlock,5,2,right,1,1.84407235661,right,1.2319854580872,0.5425070046153758,9,0,0
109,nb2TestingBlock,10,4,right,0,2.43113228552,left,1.2319854580872,0.5425070046153758,9,0,0
109,nb2TestingBlock,2,3,right,1,1.01586327685,right,1.2319854580872,0.5425070046153758,9,0,0
109,nb2TestingBlock,13,3,right,1,1.78139926752,right,1.2319854580872,0.5425070046153758,9,0,0
109,nb2TestingBlock,3,1,right,1,1.38636566453,right,1.2319854580872,0.5425070046153758,9,0,0
109,nb2TestingBlock,1,3,right,1,0.847067735095,right,1.2319854580872,0.5425070046153758,9,0,0
109,nb2TestingBlock,3,0,left,1,0.770814635379,left,1.2319854580872,0.5425070046153758,9,0,0
109,nb2TestingBlock,1,0,left,1,1.20621689016,left,1.2319854580872,0.5425070046153758,9,0,0
109,nb2TestingBlock,4,1,right,0,1.55431177957,left,1.2319854580872,0.5425070046153758,9,0,0
109,nb2TestingBlock,1,0,left,1,1.01552254466,left,1.2319854580872,0.5425070046153758,9,0,0
109,nb2TestingBlock,4,0,left,0,2.29125090479,right,1.2319854580872,0.5425070046153758,9,0,0
109,nb2TestingBlock,5,4,right,1,1.43636285514,right,1.2319854580872,0.5425070046153758,9,0,0
109,nb2TestingBlock,0,4,right,1,1.76698184895,right,1.2319854580872,0.5425070046153758,9,0,0
109,nb2TestingBlock,5,0,left,1,1.03647577151,left,1.2319854580872,0.5425070046153758,9,0,0
109,nb2TestingBlock,3,3,right,1,1.23068110081,right,1.2319854580872,0.5425070046153758,9,0,0
109,nb2TestingBlock,1,4,right,1,1.20142560666,right,1.2319854580872,0.5425070046153758,9,0,0
109,nb2TestingBlock,1,2,right,1,1.49382190043,right,1.2319854580872,0.5425070046153758,9,0,0
109,nb2TestingBlock,12,4,right,1,1.22987824683,right,1.2319854580872,0.5425070046153758,9,0,0
109,nb2TestingBlock,14,2,right,1,1.16895479049,right,1.2319854580872,0.5425070046153758,9,0,0
109,nb2TestingBlock,11,1,right,0,1.03793274716,left,1.2319854580872,0.5425070046153758,9,0,0
109,nb2TestingBlock,14,0,left,1,1.28857101907,left,1.2319854580872,0.5425070046153758,9,0,0
109,nb2TestingBlock,14,3,right,1,1.04079862337,right,1.2319854580872,0.5425070046153758,9,0,0
109,nb2TestingBlock,12,2,right,0,0.707555030202,left,1.2319854580872,0.5425070046153758,9,0,0
109,nb2TestingBlock,0,1,right,0,1.61523042841,left,1.2319854580872,0.5425070046153758,9,0,0
109,nb2TestingBlock,8,4,right,1,1.19441625875,right,1.2319854580872,0.5425070046153758,9,0,0
109,nb2TestingBlock,0,0,left,1,0.695750793164,left,1.2319854580872,0.5425070046153758,9,0,0
109,nb2TestingBlock,11,3,right,1,1.96339352435,right,1.2319854580872,0.5425070046153758,9,0,0
109,nb2TestingBlock,13,2,right,1,2.12857171616,right,1.2319854580872,0.5425070046153758,9,0,0
109,nb2TestingBlock,11,0,left,1,1.19993678126,left,1.2319854580872,0.5425070046153758,9,0,0
109,nb2TestingBlock,11,2,right,1,0.932036247415,right,1.2319854580872,0.5425070046153758,9,0,0
109,nb2TestingBlock,11,0,left,1,0.495855476669,left,1.2319854580872,0.5425070046153758,9,0,0
109,nb2TestingBlock,8,3,right,1,1.43632770024,right,1.2319854580872,0.5425070046153758,9,0,0
109,nb2TestingBlock,9,2,right,1,0.862713772641,right,1.2319854580872,0.5425070046153758,9,0,0
109,nb2TestingBlock,9,1,right,1,1.01545584048,right,1.2319854580872,0.5425070046153758,9,0,0
109,nb2TestingBlock,7,2,right,1,1.43766238488,right,1.2319854580872,0.5425070046153758,9,0,0
109,nb2TestingBlock,9,0,left,1,1.12823879618,left,1.2319854580872,0.5425070046153758,9,0,0
109,nb2TestingBlock,7,0,left,0,1.29503050815,right,1.2319854580872,0.5425070046153758,9,0,0
109,nb2TestingBlock,8,1,right,1,1.57621058331,right,1.2319854580872,0.5425070046153758,9,0,0
109,nb2TestingBlock,3,4,right,1,0.941173518919,right,1.2319854580872,0.5425070046153758,9,0,0
109,nb2TestingBlock,8,0,left,0,1.28087810351,right,1.2319854580872,0.5425070046153758,9,0,0
109,nb2TestingBlock,6,3,right,1,1.21799678919,right,1.2319854580872,0.5425070046153758,9,0,0
109,nb2TestingBlock,10,2,right,1,0.884582829922,right,1.2319854580872,0.5425070046153758,9,0,0
109,nb2TestingBlock,6,0,left,1,0.776640134226,left,1.2319854580872,0.5425070046153758,9,0,0
109,nb2TestingBlock,10,0,left,1,1.18037502776,left,1.2319854580872,0.5425070046153758,9,0,0
109,nb2TestingBlock,5,1,right,1,2.09665135976,right,1.2319854580872,0.5425070046153758,9,0,0
109,nb2TestingBlock,10,0,left,1,0.761071317291,left,1.2319854580872,0.5425070046153758,9,0,0
109,nb2TestingBlock,5,0,left,1,0.580829697905,left,1.2319854580872,0.5425070046153758,9,0,0
109,nb2TestingBlock,7,3,right,1,1.02508498023,right,1.2319854580872,0.5425070046153758,9,0,0
109,nb2TestingBlock,3,2,right,1,1.9804725,right,1.2319854580872,0.5425070046153758,9,0,0
109,nb2TestingBlock,10,3,right,0,1.04033259548,left,1.2319854580872,0.5425070046153758,9,0,0
109,nb2TestingBlock,7,4,right,1,0.843580187895,right,1.2319854580872,0.5425070046153758,9,0,0
109,nb2TestingBlock,14,4,right,1,1.08686807925,right,1.2319854580872,0.5425070046153758,9,0,0
109,nb2TestingBlock,6,1,right,0,0.727547356216,left,1.2319854580872,0.5425070046153758,9,0,0
109,nb2TestingBlock,14,0,left,0,0.907837651628,right,1.2319854580872,0.5425070046153758,9,0,0
109,nb2TestingBlock,2,4,right,0,0.983664084934,left,1.2319854580872,0.5425070046153758,9,0,0
109,nb2TestingBlock,13,1,right,1,1.33095822365,right,1.2319854580872,0.5425070046153758,9,0,0
109,nb2TestingBlock,1,1,right,1,0.961985224722,right,1.2319854580872,0.5425070046153758,9,0,0
109,nb2TestingBlock,0,2,right,1,1.11750813596,right,1.2319854580872,0.5425070046153758,9,0,0
109,nb2TestingBlock,4,3,right,1,0.708729865176,right,1.2319854580872,0.5425070046153758,9,0,0
109,nb2TestingBlock,4,4,right,1,0.952550188139,right,1.2319854580872,0.5425070046153758,9,0,0
109,nb2TestingBlock,8,4,right,1,0.972551828701,right,1.2319854580872,0.5425070046153758,9,0,0
109,nb2TestingBlock,4,0,left,1,0.400330576327,left,1.2319854580872,0.5425070046153758,9,0,0
109,nb2TestingBlock,8,0,left,1,1.26020551499,left,1.2319854580872,0.5425070046153758,9,0,0
109,nb2TestingBlock,2,2,right,1,1.44596074609,right,1.2319854580872,0.5425070046153758,9,0,0
109,nb2TestingBlock,5,3,right,1,1.01646030936,right,1.2319854580872,0.5425070046153758,9,0,0
109,nb2TestingBlock,2,0,left,1,0.69981343861,left,1.2319854580872,0.5425070046153758,9,0,0
109,nb2TestingBlock,2,3,right,1,0.887913832615,right,1.2319854580872,0.5425070046153758,9,0,0
109,nb2TestingBlock,13,4,right,1,0.851121967401,right,1.2319854580872,0.5425070046153758,9,0,0
109,nb2TestingBlock,2,0,left,1,0.839876302797,left,1.2319854580872,0.5425070046153758,9,0,0
109,nb2TestingBlock,13,0,left,1,0.867731610002,left,1.2319854580872,0.5425070046153758,9,0,0
109,nb2TestingBlock,14,3,right,1,0.678657094516,right,1.2319854580872,0.5425070046153758,9,0,0
109,nb2TestingBlock,13,0,left,1,0.890466920283,left,1.2319854580872,0.5425070046153758,9,0,0
109,nb2TestingBlock,12,2,right,1,1.21506841536,right,1.2319854580872,0.5425070046153758,9,0,0
109,nb2TestingBlock,12,1,right,1,2.33779840733,right,1.2319854580872,0.5425070046153758,9,0,0
109,nb2TestingBlock,1,4,right,1,1.40893691857,right,1.2319854580872,0.5425070046153758,9,0,0
109,nb2TestingBlock,12,0,left,1,0.628367547272,left,1.2319854580872,0.5425070046153758,9,0,0
109,nb2TestingBlock,0,1,right,1,0.776887720931,right,1.2319854580872,0.5425070046153758,9,0,0
109,nb2TestingBlock,12,0,left,1,0.796266789098,left,1.2319854580872,0.5425070046153758,9,0,0
109,nb2TestingBlock,0,0,left,0,0.88016923633,right,1.2319854580872,0.5425070046153758,9,0,0
109,nb2TestingBlock,12,0,left,1,0.971990251574,left,1.2319854580872,0.5425070046153758,9,0,0
110,nb1TestingBlock,11,0,left,1,0.694625418666,left,0.7114551949958333,0.16457919805038093,3,0,0
110,nb1TestingBlock,7,4,right,1,0.613237047001,right,0.7114551949958333,0.16457919805038093,3,0,0
110,nb1TestingBlock,8,1,right,1,0.700407946927,right,0.7114551949958333,0.16457919805038093,3,0,0
110,nb1TestingBlock,12,4,right,1,0.579505481909,right,0.7114551949958333,0.16457919805038093,3,0,0
110,nb1TestingBlock,12,0,left,1,0.570807201283,left,0.7114551949958333,0.16457919805038093,3,0,0
110,nb1TestingBlock,0,3,right,1,0.729224438115,right,0.7114551949958333,0.16457919805038093,3,0,0
110,nb1TestingBlock,0,0,left,1,0.424543940454,left,0.7114551949958333,0.16457919805038093,3,0,0
110,nb1TestingBlock,1,1,right,1,0.783429368273,right,0.7114551949958333,0.16457919805038093,3,0,0
110,nb1TestingBlock,3,2,right,0,1.08641882571,left,0.7114551949958333,0.16457919805038093,3,0,0
110,nb1TestingBlock,2,1,right,1,0.738373722894,right,0.7114551949958333,0.16457919805038093,3,0,0
110,nb1TestingBlock,6,4,right,1,0.617543069995,right,0.7114551949958333,0.16457919805038093,3,0,0
110,nb1TestingBlock,6,0,left,1,0.992307389527,left,0.7114551949958333,0.16457919805038093,3,0,0
110,nb1TestingBlock,6,0,left,1,0.759145754266,left,0.7114551949958333,0.16457919805038093,3,0,0
110,nb1TestingBlock,10,4,right,1,0.646715316624,right,0.7114551949958333,0.16457919805038093,3,0,0
110,nb1TestingBlock,8,2,right,1,0.669039571483,right,0.7114551949958333,0.16457919805038093,3,0,0
110,nb1TestingBlock,8,0,left,1,0.684096379677,left,0.7114551949958333,0.16457919805038093,3,0,0
110,nb1TestingBlock,6,2,right,1,0.595035528971,right,0.7114551949958333,0.16457919805038093,3,0,0
110,nb1TestingBlock,9,3,right,1,0.744694691822,right,0.7114551949958333,0.16457919805038093,3,0,0
110,nb1TestingBlock,9,0,left,1,0.849856180454,left,0.7114551949958333,0.16457919805038093,3,0,0
110,nb1TestingBlock,5,4,right,1,0.760470522627,right,0.7114551949958333,0.16457919805038093,3,0,0
110,nb1TestingBlock,4,1,right,0,0.847320821999,left,0.7114551949958333,0.16457919805038093,3,0,0
110,nb1TestingBlock,4,0,left,1,1.19814316092,left,0.7114551949958333,0.16457919805038093,3,0,0
110,nb1TestingBlock,2,2,right,1,0.796966704115,right,0.7114551949958333,0.16457919805038093,3,0,0
110,nb1TestingBlock,14,3,right,1,0.620490672086,right,0.7114551949958333,0.16457919805038093,3,0,0
110,nb1TestingBlock,11,3,right,1,0.595498852358,right,0.7114551949958333,0.16457919805038093,3,0,0
110,nb1TestingBlock,13,2,right,1,0.594168375084,right,0.7114551949958333,0.16457919805038093,3,0,0
110,nb1TestingBlock,13,0,left,1,0.463835686658,left,0.7114551949958333,0.16457919805038093,3,0,0
110,nb1TestingBlock,14,1,right,1,0.623215326089,right,0.7114551949958333,0.16457919805038093,3,0,0
110,nb1TestingBlock,2,3,right,1,0.621950351083,right,0.7114551949958333,0.16457919805038093,3,0,0
110,nb1TestingBlock,2,0,left,1,0.742588102805,left,0.7114551949958333,0.16457919805038093,3,0,0
110,nb2TestingBlock,3,0,left,1,0.808976454939,left,1.1806517816264221,0.6953769383867191,9,0,0
110,nb2TestingBlock,9,3,right,1,0.959479335086,right,1.1806517816264221,0.6953769383867191,9,0,0
110,nb2TestingBlock,2,1,right,0,1.12296608695,left,1.1806517816264221,0.6953769383867191,9,0,0
110,nb2TestingBlock,9,0,left,0,0.586665661097,right,1.1806517816264221,0.6953769383867191,9,0,0
110,nb2TestingBlock,4,2,right,0,1.03781494047,left,1.1806517816264221,0.6953769383867191,9,0,0
110,nb2TestingBlock,10,1,right,0,0.728467856865,left,1.1806517816264221,0.6953769383867191,9,0,0
110,nb2TestingBlock,6,2,right,1,0.892375565971,right,1.1806517816264221,0.6953769383867191,9,0,0
110,nb2TestingBlock,6,4,right,0,0.904497391778,left,1.1806517816264221,0.6953769383867191,9,0,0
110,nb2TestingBlock,7,1,right,1,1.3482953936,right,1.1806517816264221,0.6953769383867191,9,0,0
110,nb2TestingBlock,6,0,left,1,0.745447066505,left,1.1806517816264221,0.6953769383867191,9,0,0
110,nb2TestingBlock,5,2,right,1,1.4057354748,right,1.1806517816264221,0.6953769383867191,9,0,0
110,nb2TestingBlock,10,4,right,1,0.897828780074,right,1.1806517816264221,0.6953769383867191,9,0,0
110,nb2TestingBlock,2,3,right,1,0.989716744754,right,1.1806517816264221,0.6953769383867191,9,0,0
110,nb2TestingBlock,13,3,right,1,1.10523931013,right,1.1806517816264221,0.6953769383867191,9,0,0
110,nb2TestingBlock,3,1,right,1,0.961359971323,right,1.1806517816264221,0.6953769383867191,9,0,0
110,nb2TestingBlock,1,3,right,0,0.757359765802,left,1.1806517816264221,0.6953769383867191,9,0,0
110,nb2TestingBlock,3,0,left,0,1.03328957501,right,1.1806517816264221,0.6953769383867191,9,0,0
110,nb2TestingBlock,1,0,left,1,1.20364655336,left,1.1806517816264221,0.6953769383867191,9,0,0
110,nb2TestingBlock,4,1,right,0,0.807606015272,left,1.1806517816264221,0.6953769383867191,9,0,0
110,nb2TestingBlock,1,0,left,1,1.18705675171,left,1.1806517816264221,0.6953769383867191,9,0,0
110,nb2TestingBlock,4,0,left,1,0.503565516841,left,1.1806517816264221,0.6953769383867191,9,0,0
110,nb2TestingBlock,5,4,right,1,0.683567854491,right,1.1806517816264221,0.6953769383867191,9,0,0
110,nb2TestingBlock,0,4,right,0,1.02329807528,left,1.1806517816264221,0.6953769383867191,9,0,0
110,nb2TestingBlock,5,0,left,0,2.14691738211,right,1.1806517816264221,0.6953769383867191,9,0,0
110,nb2TestingBlock,3,3,right,0,1.55284635902,left,1.1806517816264221,0.6953769383867191,9,0,0
110,nb2TestingBlock,1,4,right,1,0.758865416575,right,1.1806517816264221,0.6953769383867191,9,0,0
110,nb2TestingBlock,1,2,right,0,0.682890597089,left,1.1806517816264221,0.6953769383867191,9,0,0
110,nb2TestingBlock,12,4,right,1,1.44627536973,right,1.1806517816264221,0.6953769383867191,9,0,0
110,nb2TestingBlock,14,2,right,0,1.18452710216,left,1.1806517816264221,0.6953769383867191,9,0,0
110,nb2TestingBlock,11,1,right,0,0.813077257522,left,1.1806517816264221,0.6953769383867191,9,0,0
110,nb2TestingBlock,14,0,left,1,1.08893525461,left,1.1806517816264221,0.6953769383867191,9,0,0
110,nb2TestingBlock,14,3,right,0,0.809273017963,left,1.1806517816264221,0.6953769383867191,9,0,0
110,nb2TestingBlock,12,2,right,0,1.5092293598,left,1.1806517816264221,0.6953769383867191,9,0,0
110,nb2TestingBlock,0,1,right,0,1.23740155505,left,1.1806517816264221,0.6953769383867191,9,0,0
110,nb2TestingBlock,8,4,right,1,0.775454917763,right,1.1806517816264221,0.6953769383867191,9,0,0
110,nb2TestingBlock,0,0,left,1,0.771732706274,left,1.1806517816264221,0.6953769383867191,9,0,0
110,nb2TestingBlock,11,3,right,0,0.77560995983,left,1.1806517816264221,0.6953769383867191,9,0,0
110,nb2TestingBlock,13,2,right,1,0.64310427871,right,1.1806517816264221,0.6953769383867191,9,0,0
110,nb2TestingBlock,11,0,left,1,0.527060399402,left,1.1806517816264221,0.6953769383867191,9,0,0
110,nb2TestingBlock,11,2,right,1,0.379098586623,right,1.1806517816264221,0.6953769383867191,9,0,0
110,nb2TestingBlock,11,0,left,1,0.487070362958,left,1.1806517816264221,0.6953769383867191,9,0,0
110,nb2TestingBlock,8,3,right,1,1.95503569723,right,1.1806517816264221,0.6953769383867191,9,0,0
110,nb2TestingBlock,9,2,right,1,1.44885159199,right,1.1806517816264221,0.6953769383867191,9,0,0
110,nb2TestingBlock,9,1,right,0,1.05869273697,left,1.1806517816264221,0.6953769383867191,9,0,0
110,nb2TestingBlock,7,2,right,0,0.636458202191,left,1.1806517816264221,0.6953769383867191,9,0,0
110,nb2TestingBlock,9,0,left,0,2.87250283868,right,1.1806517816264221,0.6953769383867191,9,0,0
110,nb2TestingBlock,7,0,left,0,1.31451935908,right,1.1806517816264221,0.6953769383867191,9,0,0
110,nb2TestingBlock,8,1,right,0,0.905629559431,left,1.1806517816264221,0.6953769383867191,9,0,0
110,nb2TestingBlock,3,4,right,1,0.749057803949,right,1.1806517816264221,0.6953769383867191,9,0,0
110,nb2TestingBlock,8,0,left,1,0.59291992588,left,1.1806517816264221,0.6953769383867191,9,0,0
110,nb2TestingBlock,6,3,right,0,1.6691931112,left,1.1806517816264221,0.6953769383867191,9,0,0
110,nb2TestingBlock,10,2,right,1,0.774587763876,right,1.1806517816264221,0.6953769383867191,9,0,0
110,nb2TestingBlock,6,0,left,1,0.833986603284,left,1.1806517816264221,0.6953769383867191,9,0,0
